const xrdJcamp1 = `
##TITLE=Spectrum
##JCAMP-DX=5.00 $$ chemotion-converter-app (0.1.0)
##DATA TYPE=X-RAY DIFFRACTION
##DATA CLASS=NTUPLES
##ORIGIN=
##OWNER=
##FIRSTX=5.0000
##LASTX=115.0061
##MINX=5.0
##MAXX=115.0061
##MINY=0.0139
##MAXY=5.4167
##NPOINTS=10677
##FIRSTY=0.6215
##XUNITS=2Theta
##YUNITS=Intensity
##XYDATA=(XY..XY)
5.0000, 0.6215
5.0103, 0.5729
5.0206, 0.5417
5.0309, 0.5486
5.0412, 0.5556
5.0515, 0.5694
5.0618, 0.5729
5.0721, 0.5781
5.0824, 0.5590
5.0927, 0.5764
5.1030, 0.6128
5.1133, 0.5521
5.1236, 0.5816
5.1340, 0.6198
5.1443, 0.5712
5.1546, 0.5590
5.1649, 0.5278
5.1752, 0.5122
5.1855, 0.5503
5.1958, 0.5069
5.2061, 0.5469
5.2164, 0.5729
5.2267, 0.5139
5.2370, 0.5000
5.2473, 0.4878
5.2576, 0.5156
5.2679, 0.5694
5.2782, 0.5208
5.2885, 0.5069
5.2988, 0.5174
5.3091, 0.4635
5.3194, 0.5295
5.3297, 0.5451
5.3400, 0.5174
5.3503, 0.5295
5.3606, 0.5122
5.3709, 0.5469
5.3813, 0.5069
5.3916, 0.5556
5.4019, 0.5382
5.4122, 0.5156
5.4225, 0.4844
5.4328, 0.5434
5.4431, 0.5503
5.4534, 0.4323
5.4637, 0.5625
5.4740, 0.5313
5.4843, 0.4688
5.4946, 0.4965
5.5049, 0.4983
5.5152, 0.5139
5.5255, 0.4705
5.5358, 0.4965
5.5461, 0.4931
5.5564, 0.4740
5.5667, 0.5139
5.5770, 0.4514
5.5873, 0.4722
5.5976, 0.4653
5.6079, 0.4549
5.6182, 0.4653
5.6285, 0.4080
5.6389, 0.4566
5.6492, 0.4792
5.6595, 0.4688
5.6698, 0.4462
5.6801, 0.5243
5.6904, 0.4462
5.7007, 0.4549
5.7110, 0.4462
5.7213, 0.4653
5.7316, 0.4688
5.7419, 0.4132
5.7522, 0.4375
5.7625, 0.4583
5.7728, 0.4340
5.7831, 0.4479
5.7934, 0.4201
5.8037, 0.5156
5.8140, 0.4757
5.8243, 0.3941
5.8346, 0.4375
5.8449, 0.4479
5.8552, 0.3663
5.8655, 0.4063
5.8758, 0.4375
5.8861, 0.4826
5.8965, 0.4375
5.9068, 0.4410
5.9171, 0.3976
5.9274, 0.4375
5.9377, 0.4531
5.9480, 0.4688
5.9583, 0.4097
5.9686, 0.4427
5.9789, 0.4149
5.9892, 0.4427
5.9995, 0.3837
6.0098, 0.4288
6.0201, 0.4514
6.0304, 0.3941
6.0407, 0.4392
6.0510, 0.4288
6.0613, 0.4045
6.0716, 0.4063
6.0819, 0.3889
6.0922, 0.4063
6.1025, 0.4288
6.1128, 0.3611
6.1231, 0.4080
6.1334, 0.4063
6.1438, 0.4514
6.1541, 0.4288
6.1644, 0.4236
6.1747, 0.4340
6.1850, 0.3854
6.1953, 0.4010
6.2056, 0.3872
6.2159, 0.4149
6.2262, 0.3611
6.2365, 0.3837
6.2468, 0.4115
6.2571, 0.4392
6.2674, 0.4028
6.2777, 0.3715
6.2880, 0.3802
6.2983, 0.3889
6.3086, 0.3628
6.3189, 0.4115
6.3292, 0.3559
6.3395, 0.3941
6.3498, 0.3073
6.3601, 0.3646
6.3704, 0.4097
6.3807, 0.3889
6.3910, 0.3681
6.4014, 0.3420
6.4117, 0.3854
6.4220, 0.3611
6.4323, 0.3542
6.4426, 0.3385
6.4529, 0.3542
6.4632, 0.3681
6.4735, 0.4045
6.4838, 0.3576
6.4941, 0.3594
6.5044, 0.3663
6.5147, 0.3802
6.5250, 0.3767
6.5353, 0.3941
6.5456, 0.3420
6.5559, 0.3247
6.5662, 0.3368
6.5765, 0.3507
6.5868, 0.3559
6.5971, 0.3715
6.6074, 0.3524
6.6177, 0.3628
6.6280, 0.3594
6.6383, 0.3194
6.6486, 0.3438
6.6590, 0.3472
6.6693, 0.3229
6.6796, 0.3333
6.6899, 0.3090
6.7002, 0.3594
6.7105, 0.3542
6.7208, 0.3073
6.7311, 0.3142
6.7414, 0.2951
6.7517, 0.3628
6.7620, 0.3490
6.7723, 0.3455
6.7826, 0.3003
6.7929, 0.3212
6.8032, 0.3646
6.8135, 0.2969
6.8238, 0.3628
6.8341, 0.3611
6.8444, 0.2882
6.8547, 0.3073
6.8650, 0.3003
6.8753, 0.3750
6.8856, 0.3681
6.8959, 0.3646
6.9063, 0.3125
6.9166, 0.3368
6.9269, 0.2951
6.9372, 0.3264
6.9475, 0.3073
6.9578, 0.3594
6.9681, 0.3490
6.9784, 0.2899
6.9887, 0.3316
6.9990, 0.3160
7.0093, 0.3281
7.0196, 0.3090
7.0299, 0.2951
7.0402, 0.2813
7.0505, 0.2708
7.0608, 0.3056
7.0711, 0.3524
7.0814, 0.3281
7.0917, 0.3333
7.1020, 0.3299
7.1123, 0.3351
7.1226, 0.2969
7.1329, 0.3090
7.1432, 0.3090
7.1535, 0.3194
7.1639, 0.3247
7.1742, 0.2917
7.1845, 0.3038
7.1948, 0.3073
7.2051, 0.3594
7.2154, 0.2899
7.2257, 0.3385
7.2360, 0.3247
7.2463, 0.2760
7.2566, 0.2917
7.2669, 0.3003
7.2772, 0.2951
7.2875, 0.2986
7.2978, 0.3073
7.3081, 0.2604
7.3184, 0.3073
7.3287, 0.3090
7.3390, 0.3125
7.3493, 0.2865
7.3596, 0.2639
7.3699, 0.3299
7.3802, 0.2743
7.3905, 0.2691
7.4008, 0.3090
7.4111, 0.3194
7.4215, 0.2865
7.4318, 0.3090
7.4421, 0.2847
7.4524, 0.2795
7.4627, 0.2708
7.4730, 0.3073
7.4833, 0.2899
7.4936, 0.2500
7.5039, 0.3160
7.5142, 0.2517
7.5245, 0.2760
7.5348, 0.2743
7.5451, 0.3021
7.5554, 0.2622
7.5657, 0.2917
7.5760, 0.2882
7.5863, 0.2986
7.5966, 0.2899
7.6069, 0.3108
7.6172, 0.2951
7.6275, 0.2986
7.6378, 0.2396
7.6481, 0.3056
7.6584, 0.2656
7.6688, 0.3038
7.6791, 0.2483
7.6894, 0.3038
7.6997, 0.2934
7.7100, 0.3125
7.7203, 0.2865
7.7306, 0.2378
7.7409, 0.3316
7.7512, 0.2222
7.7615, 0.2969
7.7718, 0.2899
7.7821, 0.2795
7.7924, 0.2726
7.8027, 0.2257
7.8130, 0.2795
7.8233, 0.2604
7.8336, 0.2708
7.8439, 0.2431
7.8542, 0.2413
7.8645, 0.2309
7.8748, 0.2691
7.8851, 0.2569
7.8954, 0.3194
7.9057, 0.2639
7.9160, 0.2934
7.9264, 0.2760
7.9367, 0.2326
7.9470, 0.2604
7.9573, 0.2622
7.9676, 0.2274
7.9779, 0.2587
7.9882, 0.2465
7.9985, 0.2691
8.0088, 0.2170
8.0191, 0.2656
8.0294, 0.2847
8.0397, 0.2847
8.0500, 0.2569
8.0603, 0.2639
8.0706, 0.2778
8.0809, 0.2726
8.0912, 0.2569
8.1015, 0.2830
8.1118, 0.2778
8.1221, 0.2378
8.1324, 0.2205
8.1427, 0.2448
8.1530, 0.2500
8.1633, 0.3247
8.1737, 0.2309
8.1840, 0.2587
8.1943, 0.2743
8.2046, 0.2500
8.2149, 0.2448
8.2252, 0.2847
8.2355, 0.2517
8.2458, 0.2361
8.2561, 0.2587
8.2664, 0.2674
8.2767, 0.2135
8.2870, 0.2396
8.2973, 0.2587
8.3076, 0.2361
8.3179, 0.2309
8.3282, 0.2622
8.3385, 0.2604
8.3488, 0.2569
8.3591, 0.2760
8.3694, 0.2535
8.3797, 0.2448
8.3900, 0.2274
8.4003, 0.1979
8.4106, 0.1892
8.4209, 0.2153
8.4313, 0.2361
8.4416, 0.2569
8.4519, 0.2274
8.4622, 0.2448
8.4725, 0.2483
8.4828, 0.2326
8.4931, 0.2552
8.5034, 0.2517
8.5137, 0.2813
8.5240, 0.2691
8.5343, 0.2760
8.5446, 0.2639
8.5549, 0.2778
8.5652, 0.2535
8.5755, 0.2083
8.5858, 0.2413
8.5961, 0.2517
8.6064, 0.2361
8.6167, 0.2240
8.6270, 0.2656
8.6373, 0.2622
8.6476, 0.2031
8.6579, 0.2500
8.6682, 0.2240
8.6785, 0.2691
8.6889, 0.2083
8.6992, 0.2083
8.7095, 0.2240
8.7198, 0.2674
8.7301, 0.2170
8.7404, 0.2274
8.7507, 0.2708
8.7610, 0.2118
8.7713, 0.2344
8.7816, 0.2396
8.7919, 0.2396
8.8022, 0.2170
8.8125, 0.2014
8.8228, 0.2483
8.8331, 0.2118
8.8434, 0.2448
8.8537, 0.2257
8.8640, 0.2135
8.8743, 0.2292
8.8846, 0.2344
8.8949, 0.2413
8.9052, 0.1892
8.9155, 0.2292
8.9258, 0.2587
8.9362, 0.2170
8.9465, 0.2413
8.9568, 0.2031
8.9671, 0.2431
8.9774, 0.2396
8.9877, 0.2274
8.9980, 0.1962
9.0083, 0.2396
9.0186, 0.1910
9.0289, 0.2083
9.0392, 0.1944
9.0495, 0.2031
9.0598, 0.2222
9.0701, 0.2170
9.0804, 0.2292
9.0907, 0.1962
9.1010, 0.2483
9.1113, 0.2708
9.1216, 0.2222
9.1319, 0.2656
9.1422, 0.2743
9.1525, 0.1771
9.1628, 0.1823
9.1731, 0.2274
9.1834, 0.2170
9.1938, 0.2396
9.2041, 0.2153
9.2144, 0.1997
9.2247, 0.2257
9.2350, 0.2101
9.2453, 0.2500
9.2556, 0.2101
9.2659, 0.1788
9.2762, 0.2049
9.2865, 0.2257
9.2968, 0.2118
9.3071, 0.2083
9.3174, 0.2344
9.3277, 0.2500
9.3380, 0.2135
9.3483, 0.2188
9.3586, 0.1823
9.3689, 0.1910
9.3792, 0.2031
9.3895, 0.2188
9.3998, 0.2170
9.4101, 0.2135
9.4204, 0.2309
9.4307, 0.2344
9.4410, 0.2101
9.4514, 0.1979
9.4617, 0.2240
9.4720, 0.1858
9.4823, 0.2101
9.4926, 0.1736
9.5029, 0.2083
9.5132, 0.2049
9.5235, 0.2118
9.5338, 0.2361
9.5441, 0.1910
9.5544, 0.2222
9.5647, 0.1997
9.5750, 0.1927
9.5853, 0.1910
9.5956, 0.1840
9.6059, 0.2656
9.6162, 0.2396
9.6265, 0.1806
9.6368, 0.2031
9.6471, 0.1736
9.6574, 0.2222
9.6677, 0.2014
9.6780, 0.2153
9.6883, 0.2222
9.6987, 0.2240
9.7090, 0.2031
9.7193, 0.2205
9.7296, 0.2101
9.7399, 0.2118
9.7502, 0.2500
9.7605, 0.2101
9.7708, 0.1667
9.7811, 0.1997
9.7914, 0.2170
9.8017, 0.1979
9.8120, 0.2188
9.8223, 0.1858
9.8326, 0.2014
9.8429, 0.1962
9.8532, 0.2083
9.8635, 0.1632
9.8738, 0.2205
9.8841, 0.2049
9.8944, 0.1997
9.9047, 0.1910
9.9150, 0.1997
9.9253, 0.2448
9.9356, 0.1910
9.9459, 0.1753
9.9563, 0.1910
9.9666, 0.2309
9.9769, 0.2101
9.9872, 0.1580
9.9975, 0.2153
10.0078, 0.1858
10.0181, 0.1823
10.0284, 0.1354
10.0387, 0.1840
10.0490, 0.1771
10.0593, 0.1701
10.0696, 0.1632
10.0799, 0.1545
10.0902, 0.2101
10.1005, 0.2014
10.1108, 0.1424
10.1211, 0.2118
10.1314, 0.1806
10.1417, 0.2101
10.1520, 0.1962
10.1623, 0.1962
10.1726, 0.1719
10.1829, 0.1806
10.1932, 0.2153
10.2035, 0.2361
10.2139, 0.2101
10.2242, 0.2049
10.2345, 0.1927
10.2448, 0.2066
10.2551, 0.2101
10.2654, 0.1962
10.2757, 0.1788
10.2860, 0.2031
10.2963, 0.2014
10.3066, 0.1823
10.3169, 0.1944
10.3272, 0.1944
10.3375, 0.1944
10.3478, 0.1736
10.3581, 0.2049
10.3684, 0.1910
10.3787, 0.1684
10.3890, 0.1493
10.3993, 0.1858
10.4096, 0.1771
10.4199, 0.1684
10.4302, 0.1944
10.4405, 0.1684
10.4508, 0.1875
10.4612, 0.1372
10.4715, 0.1892
10.4818, 0.1701
10.4921, 0.1892
10.5024, 0.1771
10.5127, 0.1493
10.5230, 0.1667
10.5333, 0.1736
10.5436, 0.1719
10.5539, 0.1597
10.5642, 0.1840
10.5745, 0.2240
10.5848, 0.2031
10.5951, 0.1892
10.6054, 0.1753
10.6157, 0.1962
10.6260, 0.1580
10.6363, 0.1684
10.6466, 0.1441
10.6569, 0.1563
10.6672, 0.1806
10.6775, 0.2031
10.6878, 0.1875
10.6981, 0.1632
10.7084, 0.2066
10.7188, 0.1684
10.7291, 0.2257
10.7394, 0.1684
10.7497, 0.1823
10.7600, 0.1597
10.7703, 0.2083
10.7806, 0.1979
10.7909, 0.1875
10.8012, 0.1858
10.8115, 0.1910
10.8218, 0.1632
10.8321, 0.1597
10.8424, 0.1875
10.8527, 0.1823
10.8630, 0.1979
10.8733, 0.1719
10.8836, 0.2378
10.8939, 0.1597
10.9042, 0.1563
10.9145, 0.2083
10.9248, 0.2066
10.9351, 0.1875
10.9454, 0.2031
10.9557, 0.1875
10.9661, 0.2014
10.9764, 0.1858
10.9867, 0.1962
10.9970, 0.2031
11.0073, 0.1927
11.0176, 0.1927
11.0279, 0.1719
11.0382, 0.1997
11.0485, 0.1997
11.0588, 0.2188
11.0691, 0.2326
11.0794, 0.1701
11.0897, 0.1806
11.1000, 0.1823
11.1103, 0.2135
11.1206, 0.1979
11.1309, 0.2274
11.1412, 0.2222
11.1515, 0.1840
11.1618, 0.2292
11.1721, 0.2066
11.1824, 0.2205
11.1927, 0.1997
11.2030, 0.1875
11.2133, 0.2170
11.2237, 0.2049
11.2340, 0.2222
11.2443, 0.1840
11.2546, 0.2188
11.2649, 0.1684
11.2752, 0.1806
11.2855, 0.1875
11.2958, 0.1840
11.3061, 0.1736
11.3164, 0.1910
11.3267, 0.1910
11.3370, 0.1875
11.3473, 0.1858
11.3576, 0.1649
11.3679, 0.1858
11.3782, 0.1424
11.3885, 0.1632
11.3988, 0.1736
11.4091, 0.1771
11.4194, 0.2049
11.4297, 0.1597
11.4400, 0.1858
11.4503, 0.1545
11.4606, 0.1875
11.4709, 0.1528
11.4813, 0.1684
11.4916, 0.1806
11.5019, 0.1458
11.5122, 0.1823
11.5225, 0.1788
11.5328, 0.1615
11.5431, 0.1545
11.5534, 0.1615
11.5637, 0.1632
11.5740, 0.1458
11.5843, 0.1771
11.5946, 0.1250
11.6049, 0.1528
11.6152, 0.1840
11.6255, 0.1649
11.6358, 0.1649
11.6461, 0.1788
11.6564, 0.1545
11.6667, 0.1649
11.6770, 0.1632
11.6873, 0.1615
11.6976, 0.1528
11.7079, 0.1302
11.7182, 0.1528
11.7286, 0.1615
11.7389, 0.1441
11.7492, 0.1684
11.7595, 0.1736
11.7698, 0.1701
11.7801, 0.1875
11.7904, 0.1823
11.8007, 0.1441
11.8110, 0.1684
11.8213, 0.1684
11.8316, 0.1667
11.8419, 0.1389
11.8522, 0.1406
11.8625, 0.1545
11.8728, 0.1875
11.8831, 0.1458
11.8934, 0.1597
11.9037, 0.1667
11.9140, 0.1719
11.9243, 0.1858
11.9346, 0.1701
11.9449, 0.1719
11.9552, 0.1580
11.9655, 0.1667
11.9758, 0.1111
11.9862, 0.1441
11.9965, 0.1302
12.0068, 0.1406
12.0171, 0.1580
12.0274, 0.1580
12.0377, 0.1372
12.0480, 0.1788
12.0583, 0.1684
12.0686, 0.1372
12.0789, 0.1858
12.0892, 0.1372
12.0995, 0.1476
12.1098, 0.1597
12.1201, 0.1667
12.1304, 0.1684
12.1407, 0.1424
12.1510, 0.1632
12.1613, 0.1458
12.1716, 0.1823
12.1819, 0.1580
12.1922, 0.1337
12.2025, 0.1632
12.2128, 0.1580
12.2231, 0.1649
12.2334, 0.1736
12.2438, 0.1528
12.2541, 0.1337
12.2644, 0.1771
12.2747, 0.1389
12.2850, 0.1545
12.2953, 0.1458
12.3056, 0.1962
12.3159, 0.1615
12.3262, 0.1476
12.3365, 0.1753
12.3468, 0.1545
12.3571, 0.1632
12.3674, 0.1597
12.3777, 0.1563
12.3880, 0.1493
12.3983, 0.1580
12.4086, 0.1632
12.4189, 0.1441
12.4292, 0.1545
12.4395, 0.1441
12.4498, 0.1615
12.4601, 0.2135
12.4704, 0.1927
12.4807, 0.1493
12.4911, 0.1424
12.5014, 0.1823
12.5117, 0.1649
12.5220, 0.1875
12.5323, 0.1910
12.5426, 0.1979
12.5529, 0.1667
12.5632, 0.1545
12.5735, 0.1840
12.5838, 0.1944
12.5941, 0.1840
12.6044, 0.1840
12.6147, 0.2014
12.6250, 0.2188
12.6353, 0.1979
12.6456, 0.2049
12.6559, 0.1944
12.6662, 0.1944
12.6765, 0.2465
12.6868, 0.2431
12.6971, 0.1944
12.7074, 0.2101
12.7177, 0.1910
12.7280, 0.2118
12.7383, 0.2292
12.7487, 0.1840
12.7590, 0.2153
12.7693, 0.1892
12.7796, 0.2344
12.7899, 0.1997
12.8002, 0.1563
12.8105, 0.2188
12.8208, 0.1806
12.8311, 0.1632
12.8414, 0.1858
12.8517, 0.1858
12.8620, 0.1563
12.8723, 0.1563
12.8826, 0.1840
12.8929, 0.1389
12.9032, 0.1719
12.9135, 0.1771
12.9238, 0.1372
12.9341, 0.1528
12.9444, 0.1771
12.9547, 0.1684
12.9650, 0.1458
12.9753, 0.1649
12.9856, 0.1528
12.9959, 0.1719
13.0063, 0.1441
13.0166, 0.1597
13.0269, 0.1181
13.0372, 0.1701
13.0475, 0.1753
13.0578, 0.1545
13.0681, 0.1719
13.0784, 0.1198
13.0887, 0.1545
13.0990, 0.1597
13.1093, 0.1458
13.1196, 0.1424
13.1299, 0.1476
13.1402, 0.1389
13.1505, 0.1510
13.1608, 0.1528
13.1711, 0.1545
13.1814, 0.1580
13.1917, 0.1528
13.2020, 0.1458
13.2123, 0.1458
13.2226, 0.1337
13.2329, 0.1372
13.2432, 0.1701
13.2536, 0.1233
13.2639, 0.1111
13.2742, 0.1476
13.2845, 0.1719
13.2948, 0.1458
13.3051, 0.1215
13.3154, 0.1458
13.3257, 0.1354
13.3360, 0.1285
13.3463, 0.1528
13.3566, 0.1510
13.3669, 0.1615
13.3772, 0.1302
13.3875, 0.1285
13.3978, 0.1493
13.4081, 0.1372
13.4184, 0.1910
13.4287, 0.1389
13.4390, 0.1389
13.4493, 0.1128
13.4596, 0.1545
13.4699, 0.1354
13.4802, 0.1372
13.4905, 0.1441
13.5008, 0.1372
13.5112, 0.1771
13.5215, 0.1337
13.5318, 0.1615
13.5421, 0.1198
13.5524, 0.1441
13.5627, 0.1215
13.5730, 0.1267
13.5833, 0.1267
13.5936, 0.1128
13.6039, 0.1406
13.6142, 0.1250
13.6245, 0.1215
13.6348, 0.1493
13.6451, 0.1215
13.6554, 0.1458
13.6657, 0.1389
13.6760, 0.1233
13.6863, 0.1528
13.6966, 0.1649
13.7069, 0.1337
13.7172, 0.1580
13.7275, 0.1250
13.7378, 0.1337
13.7481, 0.1285
13.7584, 0.1441
13.7688, 0.1372
13.7791, 0.1406
13.7894, 0.1441
13.7997, 0.1632
13.8100, 0.1267
13.8203, 0.1424
13.8306, 0.1302
13.8409, 0.1528
13.8512, 0.1007
13.8615, 0.1372
13.8718, 0.1372
13.8821, 0.1406
13.8924, 0.1684
13.9027, 0.1337
13.9130, 0.1753
13.9233, 0.1510
13.9336, 0.1597
13.9439, 0.1389
13.9542, 0.1302
13.9645, 0.1597
13.9748, 0.1319
13.9851, 0.1476
13.9954, 0.1632
14.0057, 0.1319
14.0161, 0.1615
14.0264, 0.1580
14.0367, 0.1441
14.0470, 0.1597
14.0573, 0.1563
14.0676, 0.1649
14.0779, 0.1580
14.0882, 0.1441
14.0985, 0.1493
14.1088, 0.1458
14.1191, 0.1250
14.1294, 0.1632
14.1397, 0.1389
14.1500, 0.1128
14.1603, 0.1771
14.1706, 0.1337
14.1809, 0.1632
14.1912, 0.1753
14.2015, 0.1528
14.2118, 0.1823
14.2221, 0.1563
14.2324, 0.1806
14.2427, 0.1476
14.2530, 0.1458
14.2633, 0.1389
14.2737, 0.1545
14.2840, 0.1372
14.2943, 0.1580
14.3046, 0.1302
14.3149, 0.1701
14.3252, 0.1441
14.3355, 0.1545
14.3458, 0.1441
14.3561, 0.1319
14.3664, 0.1441
14.3767, 0.1736
14.3870, 0.1615
14.3973, 0.1615
14.4076, 0.1476
14.4179, 0.1510
14.4282, 0.1372
14.4385, 0.1563
14.4488, 0.1545
14.4591, 0.1094
14.4694, 0.1424
14.4797, 0.1563
14.4900, 0.1441
14.5003, 0.1632
14.5106, 0.1476
14.5210, 0.1545
14.5313, 0.1441
14.5416, 0.1319
14.5519, 0.1528
14.5622, 0.1563
14.5725, 0.1424
14.5828, 0.1424
14.5931, 0.1684
14.6034, 0.1285
14.6137, 0.1267
14.6240, 0.1510
14.6343, 0.1233
14.6446, 0.1545
14.6549, 0.1372
14.6652, 0.1545
14.6755, 0.1563
14.6858, 0.1337
14.6961, 0.1597
14.7064, 0.1649
14.7167, 0.1597
14.7270, 0.1684
14.7373, 0.1684
14.7476, 0.1892
14.7579, 0.1719
14.7682, 0.1458
14.7786, 0.1753
14.7889, 0.2153
14.7992, 0.2049
14.8095, 0.1892
14.8198, 0.1736
14.8301, 0.2309
14.8404, 0.2170
14.8507, 0.2431
14.8610, 0.2257
14.8713, 0.2569
14.8816, 0.3385
14.8919, 0.2917
14.9022, 0.2622
14.9125, 0.2830
14.9228, 0.3281
14.9331, 0.3455
14.9434, 0.3750
14.9537, 0.3941
14.9640, 0.3906
14.9743, 0.4028
14.9846, 0.3733
14.9949, 0.3524
15.0052, 0.3333
15.0155, 0.3507
15.0258, 0.3403
15.0362, 0.2917
15.0465, 0.3229
15.0568, 0.3281
15.0671, 0.2813
15.0774, 0.2899
15.0877, 0.2257
15.0980, 0.2656
15.1083, 0.2118
15.1186, 0.2396
15.1289, 0.1910
15.1392, 0.2309
15.1495, 0.1910
15.1598, 0.1944
15.1701, 0.1927
15.1804, 0.2135
15.1907, 0.2031
15.2010, 0.1858
15.2113, 0.2049
15.2216, 0.1892
15.2319, 0.1597
15.2422, 0.1892
15.2525, 0.1875
15.2628, 0.1962
15.2731, 0.1719
15.2835, 0.1771
15.2938, 0.1563
15.3041, 0.1684
15.3144, 0.1806
15.3247, 0.1806
15.3350, 0.1615
15.3453, 0.1719
15.3556, 0.1649
15.3659, 0.1997
15.3762, 0.1545
15.3865, 0.1753
15.3968, 0.1667
15.4071, 0.1840
15.4174, 0.1684
15.4277, 0.1493
15.4380, 0.1597
15.4483, 0.1441
15.4586, 0.1597
15.4689, 0.1632
15.4792, 0.1493
15.4895, 0.1528
15.4998, 0.1267
15.5101, 0.1528
15.5204, 0.1441
15.5307, 0.1424
15.5411, 0.1337
15.5514, 0.1510
15.5617, 0.1354
15.5720, 0.1406
15.5823, 0.1354
15.5926, 0.1233
15.6029, 0.1406
15.6132, 0.1372
15.6235, 0.1250
15.6338, 0.1337
15.6441, 0.1406
15.6544, 0.1337
15.6647, 0.1510
15.6750, 0.1128
15.6853, 0.1146
15.6956, 0.1198
15.7059, 0.1111
15.7162, 0.1233
15.7265, 0.1406
15.7368, 0.1285
15.7471, 0.1250
15.7574, 0.1389
15.7677, 0.1510
15.7780, 0.1007
15.7883, 0.1372
15.7987, 0.1181
15.8090, 0.1163
15.8193, 0.1337
15.8296, 0.1250
15.8399, 0.1493
15.8502, 0.1181
15.8605, 0.1198
15.8708, 0.1181
15.8811, 0.1146
15.8914, 0.0972
15.9017, 0.1198
15.9120, 0.1076
15.9223, 0.1250
15.9326, 0.1302
15.9429, 0.1267
15.9532, 0.1094
15.9635, 0.1128
15.9738, 0.1094
15.9841, 0.1354
15.9944, 0.1076
16.0047, 0.1094
16.0150, 0.1111
16.0253, 0.1128
16.0356, 0.1337
16.0460, 0.1250
16.0563, 0.1181
16.0666, 0.1042
16.0769, 0.1128
16.0872, 0.1406
16.0975, 0.1233
16.1078, 0.1250
16.1181, 0.1198
16.1284, 0.1198
16.1387, 0.1076
16.1490, 0.1024
16.1593, 0.1406
16.1696, 0.1198
16.1799, 0.1250
16.1902, 0.1267
16.2005, 0.1215
16.2108, 0.1372
16.2211, 0.1007
16.2314, 0.1128
16.2417, 0.1354
16.2520, 0.1024
16.2623, 0.1372
16.2726, 0.1267
16.2829, 0.1094
16.2932, 0.1076
16.3036, 0.1233
16.3139, 0.1372
16.3242, 0.1372
16.3345, 0.1285
16.3448, 0.1094
16.3551, 0.1389
16.3654, 0.1267
16.3757, 0.1337
16.3860, 0.1181
16.3963, 0.1285
16.4066, 0.1181
16.4169, 0.1302
16.4272, 0.1285
16.4375, 0.1372
16.4478, 0.1267
16.4581, 0.1528
16.4684, 0.0833
16.4787, 0.1458
16.4890, 0.1337
16.4993, 0.1250
16.5096, 0.1302
16.5199, 0.1424
16.5302, 0.1545
16.5405, 0.1667
16.5508, 0.1563
16.5612, 0.1354
16.5715, 0.1389
16.5818, 0.1528
16.5921, 0.1233
16.6024, 0.1667
16.6127, 0.1337
16.6230, 0.1267
16.6333, 0.1337
16.6436, 0.1580
16.6539, 0.1337
16.6642, 0.1389
16.6745, 0.1372
16.6848, 0.1354
16.6951, 0.1424
16.7054, 0.1302
16.7157, 0.1406
16.7260, 0.1354
16.7363, 0.1545
16.7466, 0.1285
16.7569, 0.1128
16.7672, 0.1233
16.7775, 0.1424
16.7878, 0.1406
16.7981, 0.1128
16.8085, 0.1267
16.8188, 0.1250
16.8291, 0.1233
16.8394, 0.0903
16.8497, 0.1233
16.8600, 0.1406
16.8703, 0.0955
16.8806, 0.1493
16.8909, 0.0955
16.9012, 0.1076
16.9115, 0.0955
16.9218, 0.1146
16.9321, 0.1285
16.9424, 0.1250
16.9527, 0.1111
16.9630, 0.1094
16.9733, 0.1319
16.9836, 0.1076
16.9939, 0.1476
17.0042, 0.1076
17.0145, 0.1233
17.0248, 0.1181
17.0351, 0.0972
17.0454, 0.1128
17.0557, 0.0972
17.0661, 0.1632
17.0764, 0.1285
17.0867, 0.1042
17.0970, 0.1024
17.1073, 0.1319
17.1176, 0.1337
17.1279, 0.1250
17.1382, 0.1094
17.1485, 0.1146
17.1588, 0.1302
17.1691, 0.1076
17.1794, 0.0920
17.1897, 0.1406
17.2000, 0.1128
17.2103, 0.1111
17.2206, 0.1198
17.2309, 0.1181
17.2412, 0.1302
17.2515, 0.0990
17.2618, 0.1198
17.2721, 0.1302
17.2824, 0.1059
17.2927, 0.1354
17.3030, 0.1111
17.3134, 0.1476
17.3237, 0.1146
17.3340, 0.1354
17.3443, 0.1354
17.3546, 0.1319
17.3649, 0.1250
17.3752, 0.1285
17.3855, 0.1146
17.3958, 0.1354
17.4061, 0.1007
17.4164, 0.1319
17.4267, 0.0990
17.4370, 0.0833
17.4473, 0.0972
17.4576, 0.1250
17.4679, 0.1146
17.4782, 0.1215
17.4885, 0.1059
17.4988, 0.0920
17.5091, 0.1250
17.5194, 0.1181
17.5297, 0.1024
17.5400, 0.1163
17.5503, 0.1059
17.5606, 0.1181
17.5710, 0.1042
17.5813, 0.1198
17.5916, 0.1094
17.6019, 0.0955
17.6122, 0.1267
17.6225, 0.1111
17.6328, 0.0990
17.6431, 0.1406
17.6534, 0.1285
17.6637, 0.1267
17.6740, 0.1076
17.6843, 0.1163
17.6946, 0.1198
17.7049, 0.0868
17.7152, 0.1111
17.7255, 0.1250
17.7358, 0.1406
17.7461, 0.1250
17.7564, 0.1146
17.7667, 0.1267
17.7770, 0.1128
17.7873, 0.1198
17.7976, 0.1076
17.8079, 0.1319
17.8182, 0.1215
17.8286, 0.1128
17.8389, 0.1146
17.8492, 0.1128
17.8595, 0.1302
17.8698, 0.1059
17.8801, 0.1111
17.8904, 0.1163
17.9007, 0.1163
17.9110, 0.1128
17.9213, 0.1424
17.9316, 0.1128
17.9419, 0.1563
17.9522, 0.1163
17.9625, 0.1111
17.9728, 0.1319
17.9831, 0.1059
17.9934, 0.1146
18.0037, 0.1233
18.0140, 0.1337
18.0243, 0.1146
18.0346, 0.1319
18.0449, 0.1406
18.0552, 0.1267
18.0655, 0.1424
18.0759, 0.1528
18.0862, 0.1215
18.0965, 0.1128
18.1068, 0.1528
18.1171, 0.1649
18.1274, 0.1441
18.1377, 0.1458
18.1480, 0.1354
18.1583, 0.1632
18.1686, 0.1580
18.1789, 0.1267
18.1892, 0.1545
18.1995, 0.1979
18.2098, 0.1615
18.2201, 0.1806
18.2304, 0.1979
18.2407, 0.1771
18.2510, 0.1545
18.2613, 0.1701
18.2716, 0.2031
18.2819, 0.2240
18.2922, 0.2066
18.3025, 0.2361
18.3128, 0.2309
18.3231, 0.2309
18.3335, 0.2795
18.3438, 0.2691
18.3541, 0.2483
18.3644, 0.2813
18.3747, 0.2847
18.3850, 0.3247
18.3953, 0.2865
18.4056, 0.2708
18.4159, 0.3160
18.4262, 0.2986
18.4365, 0.2413
18.4468, 0.2587
18.4571, 0.2396
18.4674, 0.2274
18.4777, 0.2153
18.4880, 0.1753
18.4983, 0.2066
18.5086, 0.1788
18.5189, 0.1649
18.5292, 0.1528
18.5395, 0.2205
18.5498, 0.1771
18.5601, 0.1545
18.5704, 0.1510
18.5807, 0.1476
18.5911, 0.1354
18.6014, 0.1389
18.6117, 0.1493
18.6220, 0.1389
18.6323, 0.1528
18.6426, 0.1233
18.6529, 0.1476
18.6632, 0.1424
18.6735, 0.1441
18.6838, 0.1042
18.6941, 0.1285
18.7044, 0.1181
18.7147, 0.1233
18.7250, 0.1406
18.7353, 0.1198
18.7456, 0.1146
18.7559, 0.1094
18.7662, 0.1354
18.7765, 0.1354
18.7868, 0.1319
18.7971, 0.1111
18.8074, 0.1233
18.8177, 0.0938
18.8280, 0.1163
18.8384, 0.1215
18.8487, 0.0972
18.8590, 0.1181
18.8693, 0.1285
18.8796, 0.1111
18.8899, 0.1128
18.9002, 0.1128
18.9105, 0.1146
18.9208, 0.1007
18.9311, 0.1076
18.9414, 0.1024
18.9517, 0.1198
18.9620, 0.0990
18.9723, 0.1042
18.9826, 0.1111
18.9929, 0.0972
19.0032, 0.1267
19.0135, 0.1076
19.0238, 0.1250
19.0341, 0.1250
19.0444, 0.1198
19.0547, 0.1181
19.0650, 0.1042
19.0753, 0.1267
19.0856, 0.1181
19.0960, 0.1285
19.1063, 0.1094
19.1166, 0.1267
19.1269, 0.1163
19.1372, 0.1424
19.1475, 0.1267
19.1578, 0.1198
19.1681, 0.1302
19.1784, 0.1128
19.1887, 0.1337
19.1990, 0.1163
19.2093, 0.1215
19.2196, 0.0764
19.2299, 0.1094
19.2402, 0.0990
19.2505, 0.1181
19.2608, 0.1250
19.2711, 0.0903
19.2814, 0.0885
19.2917, 0.1024
19.3020, 0.1042
19.3123, 0.1146
19.3226, 0.1146
19.3329, 0.1146
19.3432, 0.1128
19.3536, 0.1372
19.3639, 0.0938
19.3742, 0.1215
19.3845, 0.1128
19.3948, 0.1042
19.4051, 0.1198
19.4154, 0.1233
19.4257, 0.1094
19.4360, 0.1076
19.4463, 0.1042
19.4566, 0.1024
19.4669, 0.1024
19.4772, 0.1111
19.4875, 0.1372
19.4978, 0.0851
19.5081, 0.1302
19.5184, 0.1215
19.5287, 0.1285
19.5390, 0.1250
19.5493, 0.1163
19.5596, 0.1337
19.5699, 0.1128
19.5802, 0.1111
19.5905, 0.1267
19.6009, 0.1111
19.6112, 0.0955
19.6215, 0.1076
19.6318, 0.1076
19.6421, 0.1250
19.6524, 0.0868
19.6627, 0.1076
19.6730, 0.0938
19.6833, 0.0885
19.6936, 0.0920
19.7039, 0.1146
19.7142, 0.1076
19.7245, 0.1163
19.7348, 0.1146
19.7451, 0.1146
19.7554, 0.1094
19.7657, 0.1076
19.7760, 0.0990
19.7863, 0.0990
19.7966, 0.1163
19.8069, 0.1406
19.8172, 0.1233
19.8275, 0.0868
19.8378, 0.1215
19.8481, 0.0920
19.8585, 0.1354
19.8688, 0.1024
19.8791, 0.0903
19.8894, 0.0990
19.8997, 0.1094
19.9100, 0.1007
19.9203, 0.1007
19.9306, 0.1146
19.9409, 0.1233
19.9512, 0.1285
19.9615, 0.1094
19.9718, 0.1128
19.9821, 0.1111
19.9924, 0.1111
20.0027, 0.0972
20.0130, 0.1024
20.0233, 0.1181
20.0336, 0.1406
20.0439, 0.1319
20.0542, 0.1094
20.0645, 0.1215
20.0748, 0.0920
20.0851, 0.1389
20.0954, 0.0938
20.1058, 0.0990
20.1161, 0.1059
20.1264, 0.1354
20.1367, 0.1007
20.1470, 0.1267
20.1573, 0.1042
20.1676, 0.1424
20.1779, 0.1128
20.1882, 0.1128
20.1985, 0.1215
20.2088, 0.1111
20.2191, 0.0903
20.2294, 0.1024
20.2397, 0.1337
20.2500, 0.0868
20.2603, 0.1285
20.2706, 0.1128
20.2809, 0.1198
20.2912, 0.1250
20.3015, 0.1128
20.3118, 0.1146
20.3221, 0.1233
20.3324, 0.1441
20.3427, 0.0990
20.3530, 0.1042
20.3634, 0.1094
20.3737, 0.1163
20.3840, 0.1302
20.3943, 0.1337
20.4046, 0.1250
20.4149, 0.1128
20.4252, 0.1354
20.4355, 0.1146
20.4458, 0.1250
20.4561, 0.1319
20.4664, 0.1059
20.4767, 0.1354
20.4870, 0.1354
20.4973, 0.1372
20.5076, 0.1476
20.5179, 0.1128
20.5282, 0.1580
20.5385, 0.1458
20.5488, 0.1528
20.5591, 0.1493
20.5694, 0.1406
20.5797, 0.1354
20.5900, 0.1510
20.6003, 0.1580
20.6106, 0.1493
20.6210, 0.1771
20.6313, 0.1406
20.6416, 0.1441
20.6519, 0.2083
20.6622, 0.1319
20.6725, 0.1458
20.6828, 0.1632
20.6931, 0.1649
20.7034, 0.1736
20.7137, 0.1372
20.7240, 0.1771
20.7343, 0.1458
20.7446, 0.1667
20.7549, 0.1424
20.7652, 0.1840
20.7755, 0.1267
20.7858, 0.1267
20.7961, 0.1493
20.8064, 0.1424
20.8167, 0.1458
20.8270, 0.1042
20.8373, 0.1406
20.8476, 0.1406
20.8579, 0.1267
20.8683, 0.1250
20.8786, 0.1181
20.8889, 0.1233
20.8992, 0.1163
20.9095, 0.1007
20.9198, 0.1215
20.9301, 0.1181
20.9404, 0.1267
20.9507, 0.1406
20.9610, 0.1354
20.9713, 0.0938
20.9816, 0.1476
20.9919, 0.1215
21.0022, 0.1372
21.0125, 0.1215
21.0228, 0.1250
21.0331, 0.1181
21.0434, 0.1302
21.0537, 0.1406
21.0640, 0.1337
21.0743, 0.1094
21.0846, 0.0990
21.0949, 0.1094
21.1052, 0.1111
21.1155, 0.1163
21.1259, 0.1215
21.1362, 0.1441
21.1465, 0.1094
21.1568, 0.1528
21.1671, 0.1250
21.1774, 0.0938
21.1877, 0.1128
21.1980, 0.1250
21.2083, 0.1372
21.2186, 0.1163
21.2289, 0.1024
21.2392, 0.1319
21.2495, 0.0938
21.2598, 0.1094
21.2701, 0.0972
21.2804, 0.1215
21.2907, 0.1146
21.3010, 0.1042
21.3113, 0.1337
21.3216, 0.1372
21.3319, 0.1059
21.3422, 0.1094
21.3525, 0.1215
21.3628, 0.1233
21.3731, 0.1389
21.3835, 0.1007
21.3938, 0.1007
21.4041, 0.1146
21.4144, 0.1042
21.4247, 0.1372
21.4350, 0.1128
21.4453, 0.1198
21.4556, 0.1233
21.4659, 0.1267
21.4762, 0.1701
21.4865, 0.1198
21.4968, 0.1302
21.5071, 0.1146
21.5174, 0.1337
21.5277, 0.1319
21.5380, 0.1267
21.5483, 0.1146
21.5586, 0.1233
21.5689, 0.1267
21.5792, 0.1059
21.5895, 0.1059
21.5998, 0.1302
21.6101, 0.1319
21.6204, 0.1372
21.6308, 0.1267
21.6411, 0.1424
21.6514, 0.1267
21.6617, 0.1285
21.6720, 0.1458
21.6823, 0.1250
21.6926, 0.1250
21.7029, 0.1250
21.7132, 0.1354
21.7235, 0.1233
21.7338, 0.1233
21.7441, 0.1198
21.7544, 0.1076
21.7647, 0.1181
21.7750, 0.1181
21.7853, 0.1424
21.7956, 0.1128
21.8059, 0.1042
21.8162, 0.0851
21.8265, 0.1198
21.8368, 0.0990
21.8471, 0.1059
21.8574, 0.0799
21.8677, 0.1198
21.8780, 0.1215
21.8884, 0.1007
21.8987, 0.1111
21.9090, 0.0972
21.9193, 0.1198
21.9296, 0.1476
21.9399, 0.0972
21.9502, 0.1111
21.9605, 0.1250
21.9708, 0.1094
21.9811, 0.1111
21.9914, 0.1302
22.0017, 0.1302
22.0120, 0.0833
22.0223, 0.1059
22.0326, 0.1076
22.0429, 0.1354
22.0532, 0.1163
22.0635, 0.1319
22.0738, 0.1042
22.0841, 0.1198
22.0944, 0.1424
22.1047, 0.1094
22.1150, 0.1111
22.1253, 0.1024
22.1356, 0.1198
22.1460, 0.1163
22.1563, 0.1007
22.1666, 0.1337
22.1769, 0.0642
22.1872, 0.1406
22.1975, 0.1059
22.2078, 0.1024
22.2181, 0.1615
22.2284, 0.1128
22.2387, 0.0990
22.2490, 0.1372
22.2593, 0.1406
22.2696, 0.1007
22.2799, 0.1267
22.2902, 0.1163
22.3005, 0.1128
22.3108, 0.1285
22.3211, 0.1059
22.3314, 0.0990
22.3417, 0.1146
22.3520, 0.1406
22.3623, 0.1198
22.3726, 0.1024
22.3829, 0.1024
22.3933, 0.0990
22.4036, 0.1128
22.4139, 0.1354
22.4242, 0.1233
22.4345, 0.1337
22.4448, 0.1319
22.4551, 0.1024
22.4654, 0.1094
22.4757, 0.1476
22.4860, 0.1389
22.4963, 0.1007
22.5066, 0.1233
22.5169, 0.1111
22.5272, 0.1285
22.5375, 0.1233
22.5478, 0.1024
22.5581, 0.1042
22.5684, 0.1024
22.5787, 0.0833
22.5890, 0.1181
22.5993, 0.1076
22.6096, 0.1285
22.6199, 0.0955
22.6302, 0.1146
22.6405, 0.1285
22.6509, 0.0990
22.6612, 0.1233
22.6715, 0.1319
22.6818, 0.1094
22.6921, 0.1181
22.7024, 0.1146
22.7127, 0.1111
22.7230, 0.1024
22.7333, 0.1233
22.7436, 0.1094
22.7539, 0.1233
22.7642, 0.1094
22.7745, 0.1701
22.7848, 0.1024
22.7951, 0.1128
22.8054, 0.0920
22.8157, 0.1076
22.8260, 0.1354
22.8363, 0.1510
22.8466, 0.1163
22.8569, 0.1198
22.8672, 0.1181
22.8775, 0.1146
22.8878, 0.1163
22.8982, 0.1458
22.9085, 0.1111
22.9188, 0.1267
22.9291, 0.1215
22.9394, 0.1424
22.9497, 0.1337
22.9600, 0.1389
22.9703, 0.1181
22.9806, 0.1007
22.9909, 0.1319
23.0012, 0.1406
23.0115, 0.1267
23.0218, 0.1476
23.0321, 0.1337
23.0424, 0.1094
23.0527, 0.1510
23.0630, 0.0990
23.0733, 0.1372
23.0836, 0.1406
23.0939, 0.1163
23.1042, 0.1267
23.1145, 0.1111
23.1248, 0.1563
23.1351, 0.1215
23.1454, 0.1441
23.1558, 0.1354
23.1661, 0.1389
23.1764, 0.1337
23.1867, 0.1354
23.1970, 0.1302
23.2073, 0.1424
23.2176, 0.1406
23.2279, 0.1649
23.2382, 0.1372
23.2485, 0.1649
23.2588, 0.1563
23.2691, 0.1563
23.2794, 0.1615
23.2897, 0.1806
23.3000, 0.1649
23.3103, 0.1944
23.3206, 0.1684
23.3309, 0.1684
23.3412, 0.1649
23.3515, 0.1667
23.3618, 0.1424
23.3721, 0.1771
23.3824, 0.1788
23.3927, 0.1476
23.4030, 0.1632
23.4134, 0.1771
23.4237, 0.1510
23.4340, 0.1580
23.4443, 0.1528
23.4546, 0.1337
23.4649, 0.1771
23.4752, 0.1563
23.4855, 0.1441
23.4958, 0.1580
23.5061, 0.1545
23.5164, 0.1840
23.5267, 0.1823
23.5370, 0.1667
23.5473, 0.1788
23.5576, 0.2170
23.5679, 0.1840
23.5782, 0.1806
23.5885, 0.1840
23.5988, 0.2014
23.6091, 0.1771
23.6194, 0.2240
23.6297, 0.1788
23.6400, 0.2483
23.6503, 0.2118
23.6607, 0.2483
23.6710, 0.2691
23.6813, 0.2656
23.6916, 0.2500
23.7019, 0.2309
23.7122, 0.2778
23.7225, 0.2743
23.7328, 0.3420
23.7431, 0.3385
23.7534, 0.3333
23.7637, 0.4410
23.7740, 0.3976
23.7843, 0.3924
23.7946, 0.4010
23.8049, 0.4010
23.8152, 0.4080
23.8255, 0.4045
23.8358, 0.3802
23.8461, 0.3819
23.8564, 0.3368
23.8667, 0.3628
23.8770, 0.3056
23.8873, 0.3247
23.8976, 0.2917
23.9079, 0.2917
23.9183, 0.3316
23.9286, 0.2795
23.9389, 0.2830
23.9492, 0.2569
23.9595, 0.2274
23.9698, 0.2656
23.9801, 0.2326
23.9904, 0.2604
24.0007, 0.2465
24.0110, 0.2517
24.0213, 0.2344
24.0316, 0.2153
24.0419, 0.1962
24.0522, 0.2274
24.0625, 0.2431
24.0728, 0.1858
24.0831, 0.2205
24.0934, 0.2396
24.1037, 0.2170
24.1140, 0.1944
24.1243, 0.1892
24.1346, 0.2014
24.1449, 0.1684
24.1552, 0.2500
24.1655, 0.2031
24.1759, 0.1910
24.1862, 0.1736
24.1965, 0.1823
24.2068, 0.1927
24.2171, 0.1892
24.2274, 0.1649
24.2377, 0.1701
24.2480, 0.1493
24.2583, 0.2135
24.2686, 0.2083
24.2789, 0.1510
24.2892, 0.1632
24.2995, 0.1510
24.3098, 0.1615
24.3201, 0.1528
24.3304, 0.1823
24.3407, 0.1649
24.3510, 0.1736
24.3613, 0.1632
24.3716, 0.1493
24.3819, 0.1389
24.3922, 0.1545
24.4025, 0.1389
24.4128, 0.1337
24.4232, 0.1528
24.4335, 0.1389
24.4438, 0.1319
24.4541, 0.1406
24.4644, 0.1528
24.4747, 0.1458
24.4850, 0.1493
24.4953, 0.1215
24.5056, 0.1424
24.5159, 0.1267
24.5262, 0.1250
24.5365, 0.1354
24.5468, 0.1319
24.5571, 0.1597
24.5674, 0.1458
24.5777, 0.1285
24.5880, 0.1337
24.5983, 0.1319
24.6086, 0.1128
24.6189, 0.1476
24.6292, 0.1337
24.6395, 0.1545
24.6498, 0.1476
24.6601, 0.1094
24.6704, 0.1406
24.6808, 0.1285
24.6911, 0.1424
24.7014, 0.1319
24.7117, 0.1510
24.7220, 0.1684
24.7323, 0.1354
24.7426, 0.1163
24.7529, 0.1076
24.7632, 0.1181
24.7735, 0.1441
24.7838, 0.1233
24.7941, 0.1319
24.8044, 0.1441
24.8147, 0.1528
24.8250, 0.1146
24.8353, 0.1597
24.8456, 0.1198
24.8559, 0.1406
24.8662, 0.1354
24.8765, 0.1267
24.8868, 0.1198
24.8971, 0.1424
24.9074, 0.1424
24.9177, 0.1319
24.9280, 0.1354
24.9384, 0.1597
24.9487, 0.1198
24.9590, 0.1181
24.9693, 0.1372
24.9796, 0.1163
24.9899, 0.1198
25.0002, 0.0955
25.0105, 0.1319
25.0208, 0.1128
25.0311, 0.1181
25.0414, 0.1250
25.0517, 0.1545
25.0620, 0.1233
25.0723, 0.1441
25.0826, 0.1267
25.0929, 0.1111
25.1032, 0.1337
25.1135, 0.1476
25.1238, 0.1215
25.1341, 0.1441
25.1444, 0.1493
25.1547, 0.1424
25.1650, 0.1389
25.1753, 0.1476
25.1857, 0.1354
25.1960, 0.1233
25.2063, 0.1580
25.2166, 0.1597
25.2269, 0.1372
25.2372, 0.0868
25.2475, 0.1580
25.2578, 0.1302
25.2681, 0.1615
25.2784, 0.1701
25.2887, 0.1510
25.2990, 0.1024
25.3093, 0.1372
25.3196, 0.1510
25.3299, 0.1528
25.3402, 0.1250
25.3505, 0.1198
25.3608, 0.1563
25.3711, 0.0990
25.3814, 0.1267
25.3917, 0.1267
25.4020, 0.1389
25.4123, 0.1545
25.4226, 0.1510
25.4329, 0.1389
25.4433, 0.1233
25.4536, 0.1424
25.4639, 0.1233
25.4742, 0.1354
25.4845, 0.1736
25.4948, 0.1319
25.5051, 0.1319
25.5154, 0.1510
25.5257, 0.1267
25.5360, 0.1476
25.5463, 0.1563
25.5566, 0.1493
25.5669, 0.1267
25.5772, 0.1198
25.5875, 0.1372
25.5978, 0.1354
25.6081, 0.1441
25.6184, 0.1389
25.6287, 0.1510
25.6390, 0.1545
25.6493, 0.1215
25.6596, 0.1441
25.6699, 0.1215
25.6802, 0.1337
25.6905, 0.1424
25.7009, 0.1632
25.7112, 0.1476
25.7215, 0.1337
25.7318, 0.1649
25.7421, 0.1285
25.7524, 0.1319
25.7627, 0.1597
25.7730, 0.1563
25.7833, 0.1788
25.7936, 0.1840
25.8039, 0.1632
25.8142, 0.1406
25.8245, 0.1892
25.8348, 0.1684
25.8451, 0.1892
25.8554, 0.1788
25.8657, 0.1667
25.8760, 0.1719
25.8863, 0.1667
25.8966, 0.1875
25.9069, 0.2222
25.9172, 0.1875
25.9275, 0.1997
25.9378, 0.1944
25.9482, 0.2222
25.9585, 0.2240
25.9688, 0.2674
25.9791, 0.2292
25.9894, 0.2604
25.9997, 0.2274
26.0100, 0.2691
26.0203, 0.2934
26.0306, 0.2882
26.0409, 0.3229
26.0512, 0.3611
26.0615, 0.3594
26.0718, 0.3802
26.0821, 0.3733
26.0924, 0.4358
26.1027, 0.4028
26.1130, 0.3889
26.1233, 0.3906
26.1336, 0.4462
26.1439, 0.4531
26.1542, 0.4219
26.1645, 0.3663
26.1748, 0.3819
26.1851, 0.3403
26.1954, 0.3490
26.2058, 0.3229
26.2161, 0.3194
26.2264, 0.3160
26.2367, 0.2899
26.2470, 0.2778
26.2573, 0.2865
26.2676, 0.2500
26.2779, 0.2691
26.2882, 0.2552
26.2985, 0.1910
26.3088, 0.2292
26.3191, 0.2274
26.3294, 0.2153
26.3397, 0.1997
26.3500, 0.2083
26.3603, 0.1927
26.3706, 0.1736
26.3809, 0.1910
26.3912, 0.1979
26.4015, 0.1753
26.4118, 0.1632
26.4221, 0.1441
26.4324, 0.2014
26.4427, 0.1719
26.4531, 0.1927
26.4634, 0.1701
26.4737, 0.1649
26.4840, 0.1597
26.4943, 0.1458
26.5046, 0.1424
26.5149, 0.1788
26.5252, 0.1736
26.5355, 0.1667
26.5458, 0.1649
26.5561, 0.1528
26.5664, 0.1302
26.5767, 0.1424
26.5870, 0.1528
26.5973, 0.1233
26.6076, 0.1337
26.6179, 0.1354
26.6282, 0.1476
26.6385, 0.1285
26.6488, 0.1406
26.6591, 0.1649
26.6694, 0.1458
26.6797, 0.1424
26.6900, 0.1163
26.7003, 0.1788
26.7107, 0.1424
26.7210, 0.1337
26.7313, 0.1233
26.7416, 0.1615
26.7519, 0.1372
26.7622, 0.1563
26.7725, 0.1667
26.7828, 0.1302
26.7931, 0.1337
26.8034, 0.1372
26.8137, 0.1597
26.8240, 0.1233
26.8343, 0.1372
26.8446, 0.1215
26.8549, 0.1302
26.8652, 0.1545
26.8755, 0.1319
26.8858, 0.1267
26.8961, 0.1632
26.9064, 0.1493
26.9167, 0.1128
26.9270, 0.1493
26.9373, 0.1337
26.9476, 0.1285
26.9579, 0.1528
26.9683, 0.1806
26.9786, 0.1580
26.9889, 0.1753
26.9992, 0.1424
27.0095, 0.1545
27.0198, 0.1441
27.0301, 0.1701
27.0404, 0.1736
27.0507, 0.1406
27.0610, 0.1528
27.0713, 0.1493
27.0816, 0.1701
27.0919, 0.1719
27.1022, 0.1233
27.1125, 0.1354
27.1228, 0.1285
27.1331, 0.1476
27.1434, 0.1233
27.1537, 0.1615
27.1640, 0.1406
27.1743, 0.1354
27.1846, 0.1684
27.1949, 0.1979
27.2052, 0.1493
27.2156, 0.1510
27.2259, 0.1424
27.2362, 0.1424
27.2465, 0.1493
27.2568, 0.1667
27.2671, 0.1337
27.2774, 0.1753
27.2877, 0.1285
27.2980, 0.1719
27.3083, 0.1389
27.3186, 0.1806
27.3289, 0.1406
27.3392, 0.1580
27.3495, 0.1458
27.3598, 0.1441
27.3701, 0.1545
27.3804, 0.1753
27.3907, 0.1476
27.4010, 0.1528
27.4113, 0.1493
27.4216, 0.1372
27.4319, 0.1233
27.4422, 0.1649
27.4525, 0.1875
27.4628, 0.1649
27.4732, 0.1719
27.4835, 0.1458
27.4938, 0.1441
27.5041, 0.1840
27.5144, 0.1372
27.5247, 0.1597
27.5350, 0.1354
27.5453, 0.1597
27.5556, 0.1701
27.5659, 0.1458
27.5762, 0.1892
27.5865, 0.1910
27.5968, 0.1580
27.6071, 0.1580
27.6174, 0.2101
27.6277, 0.1458
27.6380, 0.1563
27.6483, 0.1701
27.6586, 0.1545
27.6689, 0.1823
27.6792, 0.1910
27.6895, 0.2170
27.6998, 0.1927
27.7101, 0.1806
27.7204, 0.1910
27.7308, 0.1788
27.7411, 0.2222
27.7514, 0.2274
27.7617, 0.2326
27.7720, 0.1806
27.7823, 0.2031
27.7926, 0.2118
27.8029, 0.2188
27.8132, 0.1997
27.8235, 0.2170
27.8338, 0.1944
27.8441, 0.1979
27.8544, 0.1979
27.8647, 0.1944
27.8750, 0.1944
27.8853, 0.1979
27.8956, 0.1927
27.9059, 0.2240
27.9162, 0.1875
27.9265, 0.1719
27.9368, 0.1719
27.9471, 0.1719
27.9574, 0.2083
27.9677, 0.1823
27.9781, 0.1910
27.9884, 0.1771
27.9987, 0.1840
28.0090, 0.1788
28.0193, 0.1910
28.0296, 0.1788
28.0399, 0.1580
28.0502, 0.1372
28.0605, 0.1667
28.0708, 0.1823
28.0811, 0.1736
28.0914, 0.1806
28.1017, 0.1580
28.1120, 0.1198
28.1223, 0.1337
28.1326, 0.1406
28.1429, 0.1267
28.1532, 0.1597
28.1635, 0.1545
28.1738, 0.1684
28.1841, 0.1337
28.1944, 0.1441
28.2047, 0.1250
28.2150, 0.1493
28.2253, 0.1389
28.2357, 0.1510
28.2460, 0.1528
28.2563, 0.1719
28.2666, 0.1267
28.2769, 0.1615
28.2872, 0.1389
28.2975, 0.1337
28.3078, 0.1476
28.3181, 0.1319
28.3284, 0.1250
28.3387, 0.1372
28.3490, 0.1580
28.3593, 0.1267
28.3696, 0.1771
28.3799, 0.1424
28.3902, 0.1302
28.4005, 0.1406
28.4108, 0.1337
28.4211, 0.1146
28.4314, 0.1424
28.4417, 0.1285
28.4520, 0.1233
28.4623, 0.1719
28.4726, 0.1545
28.4829, 0.1510
28.4933, 0.1389
28.5036, 0.1476
28.5139, 0.1510
28.5242, 0.1510
28.5345, 0.1701
28.5448, 0.1215
28.5551, 0.1615
28.5654, 0.1615
28.5757, 0.1493
28.5860, 0.1146
28.5963, 0.1615
28.6066, 0.1615
28.6169, 0.1563
28.6272, 0.0990
28.6375, 0.1493
28.6478, 0.1597
28.6581, 0.1563
28.6684, 0.1701
28.6787, 0.1510
28.6890, 0.1632
28.6993, 0.1424
28.7096, 0.1354
28.7199, 0.1510
28.7302, 0.1580
28.7406, 0.1441
28.7509, 0.1580
28.7612, 0.1528
28.7715, 0.1684
28.7818, 0.1337
28.7921, 0.1667
28.8024, 0.1649
28.8127, 0.1615
28.8230, 0.1441
28.8333, 0.1181
28.8436, 0.1354
28.8539, 0.1389
28.8642, 0.1528
28.8745, 0.1406
28.8848, 0.1597
28.8951, 0.1319
28.9054, 0.1684
28.9157, 0.1319
28.9260, 0.1597
28.9363, 0.1354
28.9466, 0.1250
28.9569, 0.1389
28.9672, 0.1476
28.9775, 0.1389
28.9878, 0.1389
28.9982, 0.1094
29.0085, 0.1528
29.0188, 0.1493
29.0291, 0.1753
29.0394, 0.1424
29.0497, 0.1267
29.0600, 0.1528
29.0703, 0.1528
29.0806, 0.1788
29.0909, 0.1458
29.1012, 0.1372
29.1115, 0.1840
29.1218, 0.1528
29.1321, 0.1493
29.1424, 0.1580
29.1527, 0.1649
29.1630, 0.1250
29.1733, 0.1476
29.1836, 0.1476
29.1939, 0.1510
29.2042, 0.1563
29.2145, 0.1510
29.2248, 0.1806
29.2351, 0.1215
29.2455, 0.1372
29.2558, 0.1615
29.2661, 0.1372
29.2764, 0.1753
29.2867, 0.1215
29.2970, 0.1441
29.3073, 0.1267
29.3176, 0.1493
29.3279, 0.1528
29.3382, 0.1753
29.3485, 0.1615
29.3588, 0.1667
29.3691, 0.1788
29.3794, 0.1597
29.3897, 0.1736
29.4000, 0.1372
29.4103, 0.1719
29.4206, 0.1788
29.4309, 0.1302
29.4412, 0.1563
29.4515, 0.1580
29.4618, 0.1684
29.4721, 0.1875
29.4824, 0.1719
29.4927, 0.1701
29.5031, 0.1944
29.5134, 0.1840
29.5237, 0.1563
29.5340, 0.1476
29.5443, 0.1944
29.5546, 0.1684
29.5649, 0.2031
29.5752, 0.1372
29.5855, 0.1788
29.5958, 0.1927
29.6061, 0.1753
29.6164, 0.1753
29.6267, 0.1997
29.6370, 0.1979
29.6473, 0.2170
29.6576, 0.1944
29.6679, 0.2222
29.6782, 0.1892
29.6885, 0.1997
29.6988, 0.1927
29.7091, 0.2431
29.7194, 0.2257
29.7297, 0.2188
29.7400, 0.2240
29.7503, 0.2240
29.7607, 0.2674
29.7710, 0.2083
29.7813, 0.2413
29.7916, 0.2604
29.8019, 0.2309
29.8122, 0.2778
29.8225, 0.2535
29.8328, 0.2535
29.8431, 0.2587
29.8534, 0.2899
29.8637, 0.2552
29.8740, 0.2882
29.8843, 0.3125
29.8946, 0.3056
29.9049, 0.2917
29.9152, 0.3142
29.9255, 0.2743
29.9358, 0.3229
29.9461, 0.3542
29.9564, 0.3507
29.9667, 0.3628
29.9770, 0.4115
29.9873, 0.4097
29.9976, 0.3941
30.0080, 0.4983
30.0183, 0.4792
30.0286, 0.4618
30.0389, 0.5278
30.0492, 0.5208
30.0595, 0.6267
30.0698, 0.6076
30.0801, 0.6250
30.0904, 0.6719
30.1007, 0.7431
30.1110, 0.8299
30.1213, 0.8767
30.1316, 0.9635
30.1419, 0.9740
30.1522, 1.0833
30.1625, 1.2118
30.1728, 1.3212
30.1831, 1.3785
30.1934, 1.5469
30.2037, 1.5903
30.2140, 1.7465
30.2243, 1.8021
30.2346, 1.9028
30.2449, 1.9323
30.2552, 1.9583
30.2656, 1.8819
30.2759, 2.0156
30.2862, 1.9132
30.2965, 1.7865
30.3068, 1.8229
30.3171, 1.7830
30.3274, 1.5781
30.3377, 1.5035
30.3480, 1.5347
30.3583, 1.3177
30.3686, 1.2726
30.3789, 1.1215
30.3892, 1.0851
30.3995, 1.0260
30.4098, 0.9948
30.4201, 0.9236
30.4304, 0.8247
30.4407, 0.7274
30.4510, 0.7292
30.4613, 0.7014
30.4716, 0.6493
30.4819, 0.6267
30.4922, 0.5174
30.5025, 0.5000
30.5128, 0.5399
30.5232, 0.4792
30.5335, 0.4618
30.5438, 0.3976
30.5541, 0.4219
30.5644, 0.3837
30.5747, 0.3854
30.5850, 0.3837
30.5953, 0.3958
30.6056, 0.3559
30.6159, 0.3490
30.6262, 0.2934
30.6365, 0.3281
30.6468, 0.2813
30.6571, 0.2934
30.6674, 0.2917
30.6777, 0.3073
30.6880, 0.2292
30.6983, 0.2517
30.7086, 0.2483
30.7189, 0.2361
30.7292, 0.2934
30.7395, 0.2274
30.7498, 0.2326
30.7601, 0.2378
30.7705, 0.2951
30.7808, 0.2118
30.7911, 0.2274
30.8014, 0.2257
30.8117, 0.2083
30.8220, 0.2240
30.8323, 0.2413
30.8426, 0.2222
30.8529, 0.1892
30.8632, 0.2188
30.8735, 0.2135
30.8838, 0.2118
30.8941, 0.2049
30.9044, 0.2049
30.9147, 0.2014
30.9250, 0.2066
30.9353, 0.2153
30.9456, 0.2361
30.9559, 0.1771
30.9662, 0.2326
30.9765, 0.1823
30.9868, 0.1997
30.9971, 0.1823
31.0074, 0.1719
31.0177, 0.1927
31.0281, 0.1788
31.0384, 0.2083
31.0487, 0.1944
31.0590, 0.2014
31.0693, 0.1997
31.0796, 0.2066
31.0899, 0.1858
31.1002, 0.2014
31.1105, 0.1997
31.1208, 0.1771
31.1311, 0.2135
31.1414, 0.2205
31.1517, 0.1892
31.1620, 0.2014
31.1723, 0.1753
31.1826, 0.1979
31.1929, 0.1806
31.2032, 0.1389
31.2135, 0.2101
31.2238, 0.2118
31.2341, 0.1476
31.2444, 0.1771
31.2547, 0.1615
31.2650, 0.1684
31.2753, 0.1406
31.2857, 0.1719
31.2960, 0.1372
31.3063, 0.1788
31.3166, 0.1753
31.3269, 0.1736
31.3372, 0.1649
31.3475, 0.1840
31.3578, 0.1736
31.3681, 0.1597
31.3784, 0.1476
31.3887, 0.1563
31.3990, 0.1528
31.4093, 0.1944
31.4196, 0.1563
31.4299, 0.1701
31.4402, 0.1545
31.4505, 0.1979
31.4608, 0.1788
31.4711, 0.1927
31.4814, 0.1337
31.4917, 0.1319
31.5020, 0.1510
31.5123, 0.1806
31.5226, 0.1563
31.5330, 0.1667
31.5433, 0.1441
31.5536, 0.1701
31.5639, 0.1563
31.5742, 0.1649
31.5845, 0.1597
31.5948, 0.1354
31.6051, 0.1337
31.6154, 0.1892
31.6257, 0.1493
31.6360, 0.1493
31.6463, 0.1823
31.6566, 0.1215
31.6669, 0.1597
31.6772, 0.1563
31.6875, 0.1285
31.6978, 0.1649
31.7081, 0.1528
31.7184, 0.1424
31.7287, 0.1302
31.7390, 0.1615
31.7493, 0.1198
31.7596, 0.1615
31.7699, 0.1510
31.7802, 0.1354
31.7906, 0.1476
31.8009, 0.1684
31.8112, 0.1684
31.8215, 0.1233
31.8318, 0.1233
31.8421, 0.1319
31.8524, 0.1493
31.8627, 0.1337
31.8730, 0.1406
31.8833, 0.1389
31.8936, 0.1944
31.9039, 0.1632
31.9142, 0.1684
31.9245, 0.1476
31.9348, 0.1632
31.9451, 0.1649
31.9554, 0.1510
31.9657, 0.1910
31.9760, 0.1875
31.9863, 0.1424
31.9966, 0.1753
32.0069, 0.1458
32.0172, 0.1962
32.0275, 0.1701
32.0379, 0.1667
32.0482, 0.1701
32.0585, 0.2014
32.0688, 0.1719
32.0791, 0.1806
32.0894, 0.1753
32.0997, 0.1632
32.1100, 0.1962
32.1203, 0.2031
32.1306, 0.1788
32.1409, 0.2083
32.1512, 0.2031
32.1615, 0.1858
32.1718, 0.1892
32.1821, 0.2135
32.1924, 0.2205
32.2027, 0.1927
32.2130, 0.2361
32.2233, 0.2066
32.2336, 0.1997
32.2439, 0.2153
32.2542, 0.2135
32.2645, 0.1840
32.2748, 0.1701
32.2851, 0.1875
32.2955, 0.1632
32.3058, 0.1997
32.3161, 0.1719
32.3264, 0.2031
32.3367, 0.1962
32.3470, 0.1719
32.3573, 0.1823
32.3676, 0.1823
32.3779, 0.1632
32.3882, 0.1667
32.3985, 0.1753
32.4088, 0.1580
32.4191, 0.1649
32.4294, 0.1875
32.4397, 0.1649
32.4500, 0.1736
32.4603, 0.1632
32.4706, 0.1354
32.4809, 0.1528
32.4912, 0.1563
32.5015, 0.1354
32.5118, 0.1632
32.5221, 0.1389
32.5324, 0.1632
32.5427, 0.1597
32.5531, 0.1424
32.5634, 0.1424
32.5737, 0.1372
32.5840, 0.1892
32.5943, 0.1806
32.6046, 0.1701
32.6149, 0.1493
32.6252, 0.1597
32.6355, 0.1736
32.6458, 0.1389
32.6561, 0.1753
32.6664, 0.1510
32.6767, 0.1563
32.6870, 0.1372
32.6973, 0.1632
32.7076, 0.1580
32.7179, 0.1337
32.7282, 0.1545
32.7385, 0.1510
32.7488, 0.1667
32.7591, 0.1615
32.7694, 0.1788
32.7797, 0.1476
32.7900, 0.1372
32.8004, 0.1615
32.8107, 0.1615
32.8210, 0.1927
32.8313, 0.1788
32.8416, 0.1597
32.8519, 0.1788
32.8622, 0.1788
32.8725, 0.1580
32.8828, 0.1545
32.8931, 0.1701
32.9034, 0.1962
32.9137, 0.1632
32.9240, 0.1580
32.9343, 0.1788
32.9446, 0.1875
32.9549, 0.2049
32.9652, 0.2170
32.9755, 0.1858
32.9858, 0.1736
32.9961, 0.1806
33.0064, 0.1753
33.0167, 0.2205
33.0270, 0.1788
33.0373, 0.2031
33.0476, 0.1684
33.0580, 0.1910
33.0683, 0.2222
33.0786, 0.1858
33.0889, 0.1771
33.0992, 0.2101
33.1095, 0.2274
33.1198, 0.1927
33.1301, 0.2431
33.1404, 0.2257
33.1507, 0.1632
33.1610, 0.2101
33.1713, 0.2240
33.1816, 0.1962
33.1919, 0.2135
33.2022, 0.2031
33.2125, 0.2014
33.2228, 0.2083
33.2331, 0.1910
33.2434, 0.1684
33.2537, 0.2031
33.2640, 0.1806
33.2743, 0.1493
33.2846, 0.1927
33.2949, 0.1389
33.3052, 0.1823
33.3156, 0.1736
33.3259, 0.1684
33.3362, 0.1684
33.3465, 0.1875
33.3568, 0.1424
33.3671, 0.1615
33.3774, 0.1580
33.3877, 0.1545
33.3980, 0.1406
33.4083, 0.1528
33.4186, 0.1424
33.4289, 0.1424
33.4392, 0.1545
33.4495, 0.1458
33.4598, 0.1545
33.4701, 0.1563
33.4804, 0.1510
33.4907, 0.1580
33.5010, 0.1753
33.5113, 0.1510
33.5216, 0.1424
33.5319, 0.1510
33.5422, 0.1615
33.5525, 0.1372
33.5629, 0.1458
33.5732, 0.1354
33.5835, 0.1615
33.5938, 0.1406
33.6041, 0.1545
33.6144, 0.1580
33.6247, 0.1806
33.6350, 0.1510
33.6453, 0.1528
33.6556, 0.1667
33.6659, 0.1389
33.6762, 0.1615
33.6865, 0.1458
33.6968, 0.1580
33.7071, 0.1337
33.7174, 0.1528
33.7277, 0.1753
33.7380, 0.1510
33.7483, 0.1892
33.7586, 0.2031
33.7689, 0.1944
33.7792, 0.2031
33.7895, 0.2031
33.7998, 0.2309
33.8101, 0.2274
33.8205, 0.1910
33.8308, 0.2413
33.8411, 0.2569
33.8514, 0.2118
33.8617, 0.2240
33.8720, 0.2222
33.8823, 0.2309
33.8926, 0.1997
33.9029, 0.2708
33.9132, 0.2448
33.9235, 0.2413
33.9338, 0.2205
33.9441, 0.2552
33.9544, 0.2917
33.9647, 0.1858
33.9750, 0.2309
33.9853, 0.2465
33.9956, 0.2378
34.0059, 0.2517
34.0162, 0.2431
34.0265, 0.2552
34.0368, 0.2483
34.0471, 0.2240
34.0574, 0.2101
34.0677, 0.2292
34.0781, 0.2309
34.0884, 0.2101
34.0987, 0.2135
34.1090, 0.1719
34.1193, 0.2413
34.1296, 0.2031
34.1399, 0.1788
34.1502, 0.1545
34.1605, 0.1927
34.1708, 0.1875
34.1811, 0.1806
34.1914, 0.1649
34.2017, 0.1944
34.2120, 0.2170
34.2223, 0.1649
34.2326, 0.1806
34.2429, 0.1719
34.2532, 0.1910
34.2635, 0.1858
34.2738, 0.2101
34.2841, 0.1649
34.2944, 0.1719
34.3047, 0.1753
34.3150, 0.1632
34.3254, 0.1910
34.3357, 0.2066
34.3460, 0.1927
34.3563, 0.2031
34.3666, 0.2101
34.3769, 0.2135
34.3872, 0.1997
34.3975, 0.2066
34.4078, 0.1840
34.4181, 0.1840
34.4284, 0.2083
34.4387, 0.1788
34.4490, 0.2083
34.4593, 0.1892
34.4696, 0.1753
34.4799, 0.1875
34.4902, 0.2431
34.5005, 0.1979
34.5108, 0.2257
34.5211, 0.2014
34.5314, 0.2031
34.5417, 0.2014
34.5520, 0.2101
34.5623, 0.2361
34.5726, 0.2049
34.5830, 0.2378
34.5933, 0.2587
34.6036, 0.2569
34.6139, 0.2431
34.6242, 0.2674
34.6345, 0.2378
34.6448, 0.2292
34.6551, 0.2847
34.6654, 0.2517
34.6757, 0.2274
34.6860, 0.2431
34.6963, 0.2917
34.7066, 0.2708
34.7169, 0.2847
34.7272, 0.2674
34.7375, 0.2813
34.7478, 0.3333
34.7581, 0.3038
34.7684, 0.2760
34.7787, 0.3003
34.7890, 0.2760
34.7993, 0.2483
34.8096, 0.2813
34.8199, 0.2639
34.8303, 0.3021
34.8406, 0.2865
34.8509, 0.2743
34.8612, 0.2691
34.8715, 0.3090
34.8818, 0.2535
34.8921, 0.3021
34.9024, 0.2795
34.9127, 0.2674
34.9230, 0.3316
34.9333, 0.3038
34.9436, 0.3108
34.9539, 0.3038
34.9642, 0.3316
34.9745, 0.2934
34.9848, 0.3038
34.9951, 0.2917
35.0054, 0.3559
35.0157, 0.3212
35.0260, 0.3177
35.0363, 0.3559
35.0466, 0.3490
35.0569, 0.3420
35.0672, 0.3385
35.0775, 0.4063
35.0879, 0.3385
35.0982, 0.3889
35.1085, 0.3837
35.1188, 0.4149
35.1291, 0.4462
35.1394, 0.3941
35.1497, 0.3941
35.1600, 0.4288
35.1703, 0.4340
35.1806, 0.4965
35.1909, 0.4792
35.2012, 0.4531
35.2115, 0.5191
35.2218, 0.5139
35.2321, 0.5052
35.2424, 0.5365
35.2527, 0.6059
35.2630, 0.5885
35.2733, 0.5660
35.2836, 0.6250
35.2939, 0.7135
35.3042, 0.7413
35.3145, 0.7830
35.3248, 0.8073
35.3351, 0.8021
35.3455, 0.8542
35.3558, 0.8715
35.3661, 1.0191
35.3764, 1.0486
35.3867, 1.1285
35.3970, 1.2049
35.4073, 1.2396
35.4176, 1.4028
35.4279, 1.4184
35.4382, 1.5434
35.4485, 1.5156
35.4588, 1.6944
35.4691, 1.7674
35.4794, 1.8924
35.4897, 2.0938
35.5000, 2.1944
35.5103, 2.5208
35.5206, 2.8108
35.5309, 3.0069
35.5412, 3.2326
35.5515, 3.6181
35.5618, 3.9201
35.5721, 3.9826
35.5824, 4.5347
35.5928, 4.7795
35.6031, 5.1580
35.6134, 5.1233
35.6237, 5.3021
35.6340, 5.3142
35.6443, 5.4167
35.6546, 5.3819
35.6649, 5.2153
35.6752, 5.0538
35.6855, 5.1094
35.6958, 4.8524
35.7061, 4.8681
35.7164, 4.6788
35.7267, 4.1493
35.7370, 4.1285
35.7473, 3.8819
35.7576, 3.4635
35.7679, 3.3021
35.7782, 3.1181
35.7885, 2.9583
35.7988, 2.6962
35.8091, 2.4132
35.8194, 2.2847
35.8297, 2.0781
35.8400, 1.9236
35.8504, 1.7101
35.8607, 1.6580
35.8710, 1.5069
35.8813, 1.5069
35.8916, 1.3368
35.9019, 1.2222
35.9122, 1.1875
35.9225, 1.1441
35.9328, 1.0955
35.9431, 0.9913
35.9534, 0.8941
35.9637, 0.8021
35.9740, 0.8264
35.9843, 0.7656
35.9946, 0.6910
36.0049, 0.7517
36.0152, 0.6823
36.0255, 0.6823
36.0358, 0.6007
36.0461, 0.6059
36.0564, 0.5486
36.0667, 0.5035
36.0770, 0.5625
36.0873, 0.4896
36.0976, 0.4931
36.1080, 0.4965
36.1183, 0.4375
36.1286, 0.4653
36.1389, 0.4462
36.1492, 0.4340
36.1595, 0.4219
36.1698, 0.3872
36.1801, 0.3438
36.1904, 0.3906
36.2007, 0.3611
36.2110, 0.3524
36.2213, 0.3299
36.2316, 0.3368
36.2419, 0.3385
36.2522, 0.3333
36.2625, 0.3264
36.2728, 0.3056
36.2831, 0.3194
36.2934, 0.3194
36.3037, 0.2760
36.3140, 0.3507
36.3243, 0.3056
36.3346, 0.2517
36.3449, 0.3125
36.3553, 0.2865
36.3656, 0.2865
36.3759, 0.2622
36.3862, 0.2396
36.3965, 0.2205
36.4068, 0.2604
36.4171, 0.2361
36.4274, 0.2865
36.4377, 0.2344
36.4480, 0.2569
36.4583, 0.2344
36.4686, 0.2240
36.4789, 0.2674
36.4892, 0.2656
36.4995, 0.2135
36.5098, 0.2396
36.5201, 0.2396
36.5304, 0.1997
36.5407, 0.1840
36.5510, 0.2292
36.5613, 0.2135
36.5716, 0.1840
36.5819, 0.2170
36.5922, 0.1944
36.6025, 0.1892
36.6129, 0.1649
36.6232, 0.1979
36.6335, 0.1875
36.6438, 0.1858
36.6541, 0.1892
36.6644, 0.2326
36.6747, 0.1927
36.6850, 0.2118
36.6953, 0.1910
36.7056, 0.1615
36.7159, 0.1701
36.7262, 0.1684
36.7365, 0.1719
36.7468, 0.1875
36.7571, 0.2135
36.7674, 0.1649
36.7777, 0.1667
36.7880, 0.1858
36.7983, 0.1632
36.8086, 0.1493
36.8189, 0.1962
36.8292, 0.1858
36.8395, 0.1736
36.8498, 0.2153
36.8601, 0.1858
36.8705, 0.1997
36.8808, 0.1632
36.8911, 0.1997
36.9014, 0.1771
36.9117, 0.1701
36.9220, 0.2066
36.9323, 0.2014
36.9426, 0.1580
36.9529, 0.2066
36.9632, 0.1892
36.9735, 0.1892
36.9838, 0.2101
36.9941, 0.1840
37.0044, 0.1736
37.0147, 0.1701
37.0250, 0.1458
37.0353, 0.1753
37.0456, 0.1771
37.0559, 0.1701
37.0662, 0.2066
37.0765, 0.1944
37.0868, 0.1875
37.0971, 0.1545
37.1074, 0.2309
37.1178, 0.1806
37.1281, 0.1979
37.1384, 0.2031
37.1487, 0.2066
37.1590, 0.2170
37.1693, 0.2083
37.1796, 0.2240
37.1899, 0.2049
37.2002, 0.2847
37.2105, 0.2778
37.2208, 0.2517
37.2311, 0.2778
37.2414, 0.2882
37.2517, 0.2813
37.2620, 0.2604
37.2723, 0.3090
37.2826, 0.2674
37.2929, 0.3056
37.3032, 0.2917
37.3135, 0.2813
37.3238, 0.2622
37.3341, 0.2691
37.3444, 0.2726
37.3547, 0.2760
37.3650, 0.2882
37.3754, 0.2726
37.3857, 0.2604
37.3960, 0.2135
37.4063, 0.2431
37.4166, 0.2257
37.4269, 0.1649
37.4372, 0.2049
37.4475, 0.1892
37.4578, 0.2083
37.4681, 0.1788
37.4784, 0.1701
37.4887, 0.1615
37.4990, 0.1788
37.5093, 0.1389
37.5196, 0.1545
37.5299, 0.1788
37.5402, 0.1580
37.5505, 0.1441
37.5608, 0.1597
37.5711, 0.1146
37.5814, 0.1493
37.5917, 0.1632
37.6020, 0.1233
37.6123, 0.1372
37.6226, 0.1406
37.6330, 0.1319
37.6433, 0.1424
37.6536, 0.1285
37.6639, 0.0868
37.6742, 0.1267
37.6845, 0.1302
37.6948, 0.1215
37.7051, 0.1128
37.7154, 0.1042
37.7257, 0.1111
37.7360, 0.1337
37.7463, 0.1059
37.7566, 0.1076
37.7669, 0.1111
37.7772, 0.1163
37.7875, 0.1059
37.7978, 0.0764
37.8081, 0.0938
37.8184, 0.0955
37.8287, 0.1042
37.8390, 0.1076
37.8493, 0.1111
37.8596, 0.0868
37.8699, 0.1024
37.8803, 0.1007
37.8906, 0.0938
37.9009, 0.0990
37.9112, 0.1215
37.9215, 0.1007
37.9318, 0.1007
37.9421, 0.0764
37.9524, 0.0868
37.9627, 0.1163
37.9730, 0.0938
37.9833, 0.0833
37.9936, 0.0990
38.0039, 0.0747
38.0142, 0.1076
38.0245, 0.1094
38.0348, 0.1042
38.0451, 0.1146
38.0554, 0.0920
38.0657, 0.0851
38.0760, 0.0938
38.0863, 0.0764
38.0966, 0.1042
38.1069, 0.0955
38.1172, 0.0990
38.1275, 0.0920
38.1379, 0.1094
38.1482, 0.0938
38.1585, 0.0799
38.1688, 0.0868
38.1791, 0.0903
38.1894, 0.1007
38.1997, 0.0694
38.2100, 0.1042
38.2203, 0.1024
38.2306, 0.0816
38.2409, 0.0955
38.2512, 0.1181
38.2615, 0.0764
38.2718, 0.0799
38.2821, 0.0816
38.2924, 0.0781
38.3027, 0.0712
38.3130, 0.0972
38.3233, 0.0920
38.3336, 0.0851
38.3439, 0.0642
38.3542, 0.0920
38.3645, 0.0833
38.3748, 0.0816
38.3852, 0.0903
38.3955, 0.0781
38.4058, 0.0972
38.4161, 0.0729
38.4264, 0.1076
38.4367, 0.1128
38.4470, 0.0885
38.4573, 0.1007
38.4676, 0.0833
38.4779, 0.0903
38.4882, 0.1233
38.4985, 0.0920
38.5088, 0.1163
38.5191, 0.0885
38.5294, 0.0833
38.5397, 0.0903
38.5500, 0.0851
38.5603, 0.0903
38.5706, 0.0972
38.5809, 0.0781
38.5912, 0.0903
38.6015, 0.0972
38.6118, 0.0885
38.6221, 0.0903
38.6324, 0.0990
38.6428, 0.0747
38.6531, 0.0885
38.6634, 0.1007
38.6737, 0.0972
38.6840, 0.1024
38.6943, 0.1128
38.7046, 0.0990
38.7149, 0.0885
38.7252, 0.0990
38.7355, 0.0955
38.7458, 0.1146
38.7561, 0.0938
38.7664, 0.0920
38.7767, 0.1059
38.7870, 0.1111
38.7973, 0.1302
38.8076, 0.1250
38.8179, 0.0990
38.8282, 0.1111
38.8385, 0.1181
38.8488, 0.1337
38.8591, 0.1233
38.8694, 0.1267
38.8797, 0.1111
38.8900, 0.1319
38.9004, 0.1441
38.9107, 0.1163
38.9210, 0.0903
38.9313, 0.1181
38.9416, 0.1285
38.9519, 0.1059
38.9622, 0.1042
38.9725, 0.1319
38.9828, 0.1163
38.9931, 0.1024
39.0034, 0.1007
39.0137, 0.0885
39.0240, 0.1007
39.0343, 0.0972
39.0446, 0.1319
39.0549, 0.1337
39.0652, 0.0903
39.0755, 0.0833
39.0858, 0.1024
39.0961, 0.0938
39.1064, 0.0938
39.1167, 0.0833
39.1270, 0.1181
39.1373, 0.0608
39.1477, 0.0955
39.1580, 0.0799
39.1683, 0.0920
39.1786, 0.1024
39.1889, 0.1076
39.1992, 0.0868
39.2095, 0.0538
39.2198, 0.1024
39.2301, 0.0677
39.2404, 0.1007
39.2507, 0.0990
39.2610, 0.0625
39.2713, 0.0694
39.2816, 0.0764
39.2919, 0.1181
39.3022, 0.0938
39.3125, 0.0729
39.3228, 0.0764
39.3331, 0.0885
39.3434, 0.0816
39.3537, 0.0851
39.3640, 0.0868
39.3743, 0.0764
39.3846, 0.0903
39.3949, 0.0781
39.4053, 0.0660
39.4156, 0.0729
39.4259, 0.0729
39.4362, 0.0885
39.4465, 0.1007
39.4568, 0.0747
39.4671, 0.0642
39.4774, 0.0764
39.4877, 0.1094
39.4980, 0.0590
39.5083, 0.0868
39.5186, 0.0694
39.5289, 0.0642
39.5392, 0.0816
39.5495, 0.0747
39.5598, 0.0642
39.5701, 0.1076
39.5804, 0.0764
39.5907, 0.0642
39.6010, 0.0729
39.6113, 0.0625
39.6216, 0.1059
39.6319, 0.0920
39.6422, 0.0625
39.6525, 0.0903
39.6629, 0.0712
39.6732, 0.0608
39.6835, 0.0799
39.6938, 0.0903
39.7041, 0.0642
39.7144, 0.0747
39.7247, 0.0903
39.7350, 0.0625
39.7453, 0.0799
39.7556, 0.0799
39.7659, 0.0781
39.7762, 0.0642
39.7865, 0.0868
39.7968, 0.0660
39.8071, 0.0642
39.8174, 0.0747
39.8277, 0.0781
39.8380, 0.0972
39.8483, 0.0868
39.8586, 0.0538
39.8689, 0.0729
39.8792, 0.0938
39.8895, 0.0677
39.8998, 0.0625
39.9102, 0.0469
39.9205, 0.0938
39.9308, 0.0816
39.9411, 0.0503
39.9514, 0.0556
39.9617, 0.0799
39.9720, 0.0781
39.9823, 0.0677
39.9926, 0.0885
40.0029, 0.0694
40.0132, 0.0712
40.0235, 0.0851
40.0338, 0.0764
40.0441, 0.0938
40.0544, 0.0556
40.0647, 0.0781
40.0750, 0.0677
40.0853, 0.0660
40.0956, 0.0781
40.1059, 0.1076
40.1162, 0.0677
40.1265, 0.0608
40.1368, 0.0747
40.1471, 0.0868
40.1574, 0.0677
40.1678, 0.0833
40.1781, 0.0747
40.1884, 0.0920
40.1987, 0.0851
40.2090, 0.0851
40.2193, 0.0747
40.2296, 0.0816
40.2399, 0.0799
40.2502, 0.0833
40.2605, 0.0747
40.2708, 0.0816
40.2811, 0.0729
40.2914, 0.0833
40.3017, 0.0972
40.3120, 0.0781
40.3223, 0.0903
40.3326, 0.0816
40.3429, 0.0955
40.3532, 0.0972
40.3635, 0.0729
40.3738, 0.0781
40.3841, 0.0920
40.3944, 0.0799
40.4047, 0.1024
40.4150, 0.0677
40.4254, 0.0816
40.4357, 0.0781
40.4460, 0.0938
40.4563, 0.0694
40.4666, 0.0955
40.4769, 0.0816
40.4872, 0.0781
40.4975, 0.1076
40.5078, 0.0885
40.5181, 0.0833
40.5284, 0.0903
40.5387, 0.1076
40.5490, 0.0990
40.5593, 0.1007
40.5696, 0.0816
40.5799, 0.0712
40.5902, 0.0694
40.6005, 0.0764
40.6108, 0.0990
40.6211, 0.0729
40.6314, 0.0747
40.6417, 0.0816
40.6520, 0.0608
40.6623, 0.1111
40.6727, 0.0955
40.6830, 0.0903
40.6933, 0.0764
40.7036, 0.0729
40.7139, 0.0833
40.7242, 0.0781
40.7345, 0.0747
40.7448, 0.0903
40.7551, 0.0729
40.7654, 0.0729
40.7757, 0.1128
40.7860, 0.0799
40.7963, 0.0885
40.8066, 0.0729
40.8169, 0.0781
40.8272, 0.0799
40.8375, 0.0816
40.8478, 0.0642
40.8581, 0.0816
40.8684, 0.0903
40.8787, 0.0799
40.8890, 0.0920
40.8993, 0.0799
40.9096, 0.0990
40.9199, 0.0955
40.9303, 0.0955
40.9406, 0.0833
40.9509, 0.0955
40.9612, 0.0747
40.9715, 0.0903
40.9818, 0.0590
40.9921, 0.0764
41.0024, 0.0816
41.0127, 0.0833
41.0230, 0.0712
41.0333, 0.0799
41.0436, 0.0885
41.0539, 0.0764
41.0642, 0.0868
41.0745, 0.0729
41.0848, 0.0729
41.0951, 0.0938
41.1054, 0.0885
41.1157, 0.0712
41.1260, 0.0851
41.1363, 0.0608
41.1466, 0.0434
41.1569, 0.0729
41.1672, 0.0660
41.1776, 0.0764
41.1879, 0.0538
41.1982, 0.0903
41.2085, 0.0729
41.2188, 0.0642
41.2291, 0.0660
41.2394, 0.0590
41.2497, 0.0764
41.2600, 0.0590
41.2703, 0.0799
41.2806, 0.0747
41.2909, 0.0590
41.3012, 0.0920
41.3115, 0.0816
41.3218, 0.0868
41.3321, 0.0833
41.3424, 0.0781
41.3527, 0.0729
41.3630, 0.0833
41.3733, 0.0747
41.3836, 0.0833
41.3939, 0.0833
41.4042, 0.0851
41.4145, 0.0625
41.4248, 0.0573
41.4352, 0.0625
41.4455, 0.0694
41.4558, 0.0660
41.4661, 0.0729
41.4764, 0.0781
41.4867, 0.0573
41.4970, 0.0747
41.5073, 0.0677
41.5176, 0.0694
41.5279, 0.0799
41.5382, 0.0573
41.5485, 0.0868
41.5588, 0.0590
41.5691, 0.0677
41.5794, 0.0625
41.5897, 0.0868
41.6000, 0.0938
41.6103, 0.0712
41.6206, 0.0573
41.6309, 0.0851
41.6412, 0.0712
41.6515, 0.0868
41.6618, 0.0677
41.6721, 0.0694
41.6824, 0.0851
41.6928, 0.0538
41.7031, 0.0642
41.7134, 0.0677
41.7237, 0.0694
41.7340, 0.0573
41.7443, 0.0503
41.7546, 0.1007
41.7649, 0.0677
41.7752, 0.0920
41.7855, 0.0625
41.7958, 0.0938
41.8061, 0.0729
41.8164, 0.0833
41.8267, 0.0660
41.8370, 0.0729
41.8473, 0.0955
41.8576, 0.0729
41.8679, 0.0781
41.8782, 0.0729
41.8885, 0.0885
41.8988, 0.0799
41.9091, 0.0781
41.9194, 0.0729
41.9297, 0.0990
41.9401, 0.0816
41.9504, 0.0677
41.9607, 0.0642
41.9710, 0.0851
41.9813, 0.0469
41.9916, 0.0781
42.0019, 0.0885
42.0122, 0.0781
42.0225, 0.0573
42.0328, 0.0851
42.0431, 0.0764
42.0534, 0.0694
42.0637, 0.0729
42.0740, 0.0816
42.0843, 0.0851
42.0946, 0.0590
42.1049, 0.0799
42.1152, 0.0799
42.1255, 0.0868
42.1358, 0.0885
42.1461, 0.0868
42.1564, 0.0677
42.1667, 0.0642
42.1770, 0.0851
42.1873, 0.0764
42.1977, 0.0799
42.2080, 0.0851
42.2183, 0.0781
42.2286, 0.0694
42.2389, 0.0712
42.2492, 0.0764
42.2595, 0.0972
42.2698, 0.0851
42.2801, 0.0625
42.2904, 0.0885
42.3007, 0.0903
42.3110, 0.0781
42.3213, 0.0833
42.3316, 0.0990
42.3419, 0.1076
42.3522, 0.0990
42.3625, 0.0816
42.3728, 0.0677
42.3831, 0.0747
42.3934, 0.0955
42.4037, 0.0625
42.4140, 0.0885
42.4243, 0.0816
42.4346, 0.0955
42.4449, 0.0938
42.4553, 0.0903
42.4656, 0.1024
42.4759, 0.0816
42.4862, 0.0868
42.4965, 0.1042
42.5068, 0.1059
42.5171, 0.0972
42.5274, 0.0816
42.5377, 0.1094
42.5480, 0.0764
42.5583, 0.1076
42.5686, 0.0972
42.5789, 0.0885
42.5892, 0.1198
42.5995, 0.1059
42.6098, 0.0903
42.6201, 0.0938
42.6304, 0.0885
42.6407, 0.1198
42.6510, 0.1059
42.6613, 0.0833
42.6716, 0.0938
42.6819, 0.0938
42.6922, 0.0781
42.7026, 0.0833
42.7129, 0.1146
42.7232, 0.1389
42.7335, 0.1215
42.7438, 0.1076
42.7541, 0.1007
42.7644, 0.1233
42.7747, 0.1319
42.7850, 0.1302
42.7953, 0.1302
42.8056, 0.1285
42.8159, 0.1250
42.8262, 0.1181
42.8365, 0.1389
42.8468, 0.1476
42.8571, 0.1233
42.8674, 0.1302
42.8777, 0.1528
42.8880, 0.1736
42.8983, 0.1580
42.9086, 0.1146
42.9189, 0.1458
42.9292, 0.1962
42.9395, 0.1788
42.9498, 0.1823
42.9602, 0.1823
42.9705, 0.1806
42.9808, 0.1788
42.9911, 0.2083
43.0014, 0.1719
43.0117, 0.1944
43.0220, 0.1858
43.0323, 0.2326
43.0426, 0.2552
43.0529, 0.2240
43.0632, 0.2865
43.0735, 0.2882
43.0838, 0.2604
43.0941, 0.2760
43.1044, 0.3229
43.1147, 0.3299
43.1250, 0.3715
43.1353, 0.3733
43.1456, 0.4271
43.1559, 0.4167
43.1662, 0.4375
43.1765, 0.4583
43.1868, 0.4948
43.1971, 0.4792
43.2074, 0.5816
43.2178, 0.6476
43.2281, 0.6615
43.2384, 0.7309
43.2487, 0.7622
43.2590, 0.7882
43.2693, 0.8073
43.2796, 0.8802
43.2899, 0.8559
43.3002, 0.8958
43.3105, 0.8785
43.3208, 0.8854
43.3311, 0.8750
43.3414, 0.8802
43.3517, 0.8767
43.3620, 0.8698
43.3723, 0.8333
43.3826, 0.7778
43.3929, 0.7604
43.4032, 0.7778
43.4135, 0.7778
43.4238, 0.7656
43.4341, 0.7587
43.4444, 0.6250
43.4547, 0.6597
43.4651, 0.6337
43.4754, 0.5729
43.4857, 0.5417
43.4960, 0.5399
43.5063, 0.4497
43.5166, 0.4392
43.5269, 0.4705
43.5372, 0.4167
43.5475, 0.4010
43.5578, 0.3663
43.5681, 0.3646
43.5784, 0.3125
43.5887, 0.3108
43.5990, 0.2986
43.6093, 0.2882
43.6196, 0.3125
43.6299, 0.2778
43.6402, 0.2465
43.6505, 0.2465
43.6608, 0.2535
43.6711, 0.2240
43.6814, 0.2101
43.6917, 0.1875
43.7020, 0.2431
43.7123, 0.1927
43.7227, 0.1910
43.7330, 0.1597
43.7433, 0.1563
43.7536, 0.1927
43.7639, 0.1736
43.7742, 0.1441
43.7845, 0.1753
43.7948, 0.1389
43.8051, 0.1337
43.8154, 0.1753
43.8257, 0.1597
43.8360, 0.1285
43.8463, 0.1389
43.8566, 0.1580
43.8669, 0.1094
43.8772, 0.1597
43.8875, 0.1146
43.8978, 0.1146
43.9081, 0.1389
43.9184, 0.1424
43.9287, 0.1389
43.9390, 0.0938
43.9493, 0.1267
43.9596, 0.1094
43.9700, 0.1024
43.9803, 0.1233
43.9906, 0.1354
44.0009, 0.1042
44.0112, 0.0868
44.0215, 0.0868
44.0318, 0.0955
44.0421, 0.1215
44.0524, 0.0920
44.0627, 0.0885
44.0730, 0.0903
44.0833, 0.0747
44.0936, 0.0868
44.1039, 0.1181
44.1142, 0.0885
44.1245, 0.0868
44.1348, 0.1007
44.1451, 0.0851
44.1554, 0.0851
44.1657, 0.0764
44.1760, 0.0851
44.1863, 0.0920
44.1966, 0.0920
44.2069, 0.0920
44.2172, 0.0938
44.2276, 0.1059
44.2379, 0.0903
44.2482, 0.0851
44.2585, 0.0833
44.2688, 0.1042
44.2791, 0.0851
44.2894, 0.0851
44.2997, 0.1128
44.3100, 0.0903
44.3203, 0.0764
44.3306, 0.0590
44.3409, 0.0799
44.3512, 0.0851
44.3615, 0.0521
44.3718, 0.0781
44.3821, 0.0573
44.3924, 0.0955
44.4027, 0.0556
44.4130, 0.0816
44.4233, 0.0729
44.4336, 0.0799
44.4439, 0.0799
44.4542, 0.0729
44.4645, 0.0816
44.4748, 0.0747
44.4852, 0.0920
44.4955, 0.0712
44.5058, 0.0781
44.5161, 0.0920
44.5264, 0.0677
44.5367, 0.0747
44.5470, 0.0764
44.5573, 0.0851
44.5676, 0.0781
44.5779, 0.0851
44.5882, 0.0955
44.5985, 0.0920
44.6088, 0.0903
44.6191, 0.0677
44.6294, 0.0729
44.6397, 0.0885
44.6500, 0.0938
44.6603, 0.0799
44.6706, 0.0851
44.6809, 0.0868
44.6912, 0.0885
44.7015, 0.0868
44.7118, 0.0538
44.7221, 0.0851
44.7325, 0.0972
44.7428, 0.0903
44.7531, 0.1024
44.7634, 0.0990
44.7737, 0.0920
44.7840, 0.0938
44.7943, 0.0938
44.8046, 0.1042
44.8149, 0.0781
44.8252, 0.0990
44.8355, 0.0938
44.8458, 0.0972
44.8561, 0.0990
44.8664, 0.0955
44.8767, 0.0816
44.8870, 0.0799
44.8973, 0.0816
44.9076, 0.1024
44.9179, 0.0747
44.9282, 0.0816
44.9385, 0.0538
44.9488, 0.0903
44.9591, 0.0903
44.9694, 0.0955
44.9797, 0.0694
44.9901, 0.0764
45.0004, 0.0799
45.0107, 0.0694
45.0210, 0.0625
45.0313, 0.0556
45.0416, 0.0573
45.0519, 0.0781
45.0622, 0.0625
45.0725, 0.0660
45.0828, 0.0833
45.0931, 0.0885
45.1034, 0.0938
45.1137, 0.0851
45.1240, 0.0868
45.1343, 0.0833
45.1446, 0.0694
45.1549, 0.0573
45.1652, 0.0799
45.1755, 0.0799
45.1858, 0.0833
45.1961, 0.0660
45.2064, 0.0694
45.2167, 0.0694
45.2270, 0.0642
45.2373, 0.0781
45.2477, 0.0851
45.2580, 0.0799
45.2683, 0.0799
45.2786, 0.0868
45.2889, 0.0764
45.2992, 0.0660
45.3095, 0.0781
45.3198, 0.0799
45.3301, 0.0781
45.3404, 0.0642
45.3507, 0.0851
45.3610, 0.0885
45.3713, 0.0851
45.3816, 0.0938
45.3919, 0.0712
45.4022, 0.0729
45.4125, 0.0868
45.4228, 0.0764
45.4331, 0.0642
45.4434, 0.0764
45.4537, 0.0694
45.4640, 0.0573
45.4743, 0.0938
45.4846, 0.0816
45.4950, 0.0712
45.5053, 0.0851
45.5156, 0.0625
45.5259, 0.0712
45.5362, 0.0747
45.5465, 0.0677
45.5568, 0.0799
45.5671, 0.0712
45.5774, 0.0729
45.5877, 0.0625
45.5980, 0.0712
45.6083, 0.0521
45.6186, 0.0608
45.6289, 0.0625
45.6392, 0.0677
45.6495, 0.0660
45.6598, 0.0608
45.6701, 0.0764
45.6804, 0.0608
45.6907, 0.0903
45.7010, 0.0729
45.7113, 0.0712
45.7216, 0.0868
45.7319, 0.0729
45.7422, 0.0556
45.7526, 0.0764
45.7629, 0.0677
45.7732, 0.0799
45.7835, 0.0694
45.7938, 0.0642
45.8041, 0.0608
45.8144, 0.0920
45.8247, 0.0747
45.8350, 0.0556
45.8453, 0.0712
45.8556, 0.0938
45.8659, 0.0642
45.8762, 0.0521
45.8865, 0.0642
45.8968, 0.0503
45.9071, 0.0799
45.9174, 0.0625
45.9277, 0.0990
45.9380, 0.0747
45.9483, 0.0660
45.9586, 0.0729
45.9689, 0.0677
45.9792, 0.0833
45.9895, 0.0764
45.9998, 0.0642
46.0102, 0.0642
46.0205, 0.0729
46.0308, 0.0781
46.0411, 0.0781
46.0514, 0.0712
46.0617, 0.0486
46.0720, 0.0712
46.0823, 0.0712
46.0926, 0.0764
46.1029, 0.0833
46.1132, 0.0781
46.1235, 0.0642
46.1338, 0.0625
46.1441, 0.0625
46.1544, 0.0799
46.1647, 0.1076
46.1750, 0.0469
46.1853, 0.0712
46.1956, 0.0660
46.2059, 0.0556
46.2162, 0.0677
46.2265, 0.0781
46.2368, 0.0642
46.2471, 0.0486
46.2575, 0.0556
46.2678, 0.0781
46.2781, 0.0417
46.2884, 0.0799
46.2987, 0.0747
46.3090, 0.0503
46.3193, 0.0764
46.3296, 0.0556
46.3399, 0.0573
46.3502, 0.0729
46.3605, 0.0642
46.3708, 0.0868
46.3811, 0.0538
46.3914, 0.0556
46.4017, 0.0729
46.4120, 0.0660
46.4223, 0.0503
46.4326, 0.0486
46.4429, 0.0712
46.4532, 0.0573
46.4635, 0.0747
46.4738, 0.0712
46.4841, 0.0868
46.4944, 0.0625
46.5047, 0.0434
46.5151, 0.0625
46.5254, 0.0729
46.5357, 0.0503
46.5460, 0.0694
46.5563, 0.0486
46.5666, 0.0781
46.5769, 0.0799
46.5872, 0.0625
46.5975, 0.0729
46.6078, 0.0677
46.6181, 0.0677
46.6284, 0.0556
46.6387, 0.0486
46.6490, 0.0677
46.6593, 0.0642
46.6696, 0.0903
46.6799, 0.0417
46.6902, 0.0590
46.7005, 0.0747
46.7108, 0.0608
46.7211, 0.0434
46.7314, 0.0434
46.7417, 0.0816
46.7520, 0.0625
46.7624, 0.0660
46.7727, 0.0694
46.7830, 0.0573
46.7933, 0.0642
46.8036, 0.0451
46.8139, 0.0747
46.8242, 0.0590
46.8345, 0.0469
46.8448, 0.0625
46.8551, 0.0677
46.8654, 0.0503
46.8757, 0.0556
46.8860, 0.0677
46.8963, 0.0642
46.9066, 0.0660
46.9169, 0.0590
46.9272, 0.0938
46.9375, 0.0642
46.9478, 0.0642
46.9581, 0.0538
46.9684, 0.0521
46.9787, 0.0486
46.9890, 0.0608
46.9993, 0.0556
47.0096, 0.0608
47.0200, 0.0747
47.0303, 0.0503
47.0406, 0.0608
47.0509, 0.0573
47.0612, 0.0729
47.0715, 0.0451
47.0818, 0.0573
47.0921, 0.0660
47.1024, 0.0660
47.1127, 0.0556
47.1230, 0.0556
47.1333, 0.0330
47.1436, 0.0295
47.1539, 0.0556
47.1642, 0.0729
47.1745, 0.0608
47.1848, 0.0469
47.1951, 0.0625
47.2054, 0.0712
47.2157, 0.0677
47.2260, 0.0469
47.2363, 0.0521
47.2466, 0.0556
47.2569, 0.0451
47.2672, 0.0486
47.2776, 0.0451
47.2879, 0.0642
47.2982, 0.0608
47.3085, 0.0833
47.3188, 0.0365
47.3291, 0.0608
47.3394, 0.0625
47.3497, 0.0538
47.3600, 0.0538
47.3703, 0.0608
47.3806, 0.0503
47.3909, 0.0642
47.4012, 0.0729
47.4115, 0.0608
47.4218, 0.0503
47.4321, 0.0469
47.4424, 0.0729
47.4527, 0.0399
47.4630, 0.0503
47.4733, 0.0486
47.4836, 0.0486
47.4939, 0.0642
47.5042, 0.0642
47.5145, 0.0573
47.5249, 0.0573
47.5352, 0.0434
47.5455, 0.0608
47.5558, 0.0434
47.5661, 0.0503
47.5764, 0.0660
47.5867, 0.0677
47.5970, 0.0608
47.6073, 0.0521
47.6176, 0.0764
47.6279, 0.0521
47.6382, 0.0573
47.6485, 0.0521
47.6588, 0.0451
47.6691, 0.0503
47.6794, 0.0434
47.6897, 0.0608
47.7000, 0.0382
47.7103, 0.0347
47.7206, 0.0694
47.7309, 0.0503
47.7412, 0.0382
47.7515, 0.0486
47.7618, 0.0677
47.7721, 0.0521
47.7825, 0.0764
47.7928, 0.0677
47.8031, 0.0521
47.8134, 0.0590
47.8237, 0.0556
47.8340, 0.0660
47.8443, 0.0313
47.8546, 0.0660
47.8649, 0.0399
47.8752, 0.0625
47.8855, 0.0556
47.8958, 0.0660
47.9061, 0.0590
47.9164, 0.0642
47.9267, 0.0573
47.9370, 0.0521
47.9473, 0.0781
47.9576, 0.0642
47.9679, 0.0556
47.9782, 0.0503
47.9885, 0.0538
47.9988, 0.0503
48.0091, 0.0521
48.0194, 0.0521
48.0297, 0.0538
48.0401, 0.0677
48.0504, 0.0521
48.0607, 0.0486
48.0710, 0.0538
48.0813, 0.0608
48.0916, 0.0451
48.1019, 0.0573
48.1122, 0.0556
48.1225, 0.0573
48.1328, 0.0625
48.1431, 0.0729
48.1534, 0.0295
48.1637, 0.0573
48.1740, 0.0573
48.1843, 0.0677
48.1946, 0.0590
48.2049, 0.0556
48.2152, 0.0538
48.2255, 0.0625
48.2358, 0.0590
48.2461, 0.0660
48.2564, 0.0434
48.2667, 0.0764
48.2770, 0.0712
48.2874, 0.0625
48.2977, 0.0503
48.3080, 0.0694
48.3183, 0.0486
48.3286, 0.0677
48.3389, 0.0486
48.3492, 0.0521
48.3595, 0.0451
48.3698, 0.0608
48.3801, 0.0660
48.3904, 0.0486
48.4007, 0.0399
48.4110, 0.0434
48.4213, 0.0747
48.4316, 0.0608
48.4419, 0.0677
48.4522, 0.0382
48.4625, 0.0608
48.4728, 0.0434
48.4831, 0.0677
48.4934, 0.0590
48.5037, 0.0503
48.5140, 0.0573
48.5243, 0.0573
48.5346, 0.0538
48.5450, 0.0521
48.5553, 0.0660
48.5656, 0.0712
48.5759, 0.0712
48.5862, 0.0694
48.5965, 0.0573
48.6068, 0.0590
48.6171, 0.0556
48.6274, 0.0729
48.6377, 0.0608
48.6480, 0.0538
48.6583, 0.0799
48.6686, 0.0677
48.6789, 0.0729
48.6892, 0.0677
48.6995, 0.0816
48.7098, 0.0590
48.7201, 0.0590
48.7304, 0.0625
48.7407, 0.0642
48.7510, 0.0503
48.7613, 0.0469
48.7716, 0.0556
48.7819, 0.0677
48.7922, 0.0625
48.8026, 0.0677
48.8129, 0.0677
48.8232, 0.0920
48.8335, 0.0625
48.8438, 0.0590
48.8541, 0.0712
48.8644, 0.0538
48.8747, 0.0625
48.8850, 0.0538
48.8953, 0.0625
48.9056, 0.0642
48.9159, 0.0694
48.9262, 0.0625
48.9365, 0.0799
48.9468, 0.0712
48.9571, 0.0712
48.9674, 0.0712
48.9777, 0.0747
48.9880, 0.0747
48.9983, 0.0868
49.0086, 0.0625
49.0189, 0.0712
49.0292, 0.0677
49.0395, 0.0694
49.0499, 0.0781
49.0602, 0.0747
49.0705, 0.0538
49.0808, 0.0625
49.0911, 0.0729
49.1014, 0.0382
49.1117, 0.0521
49.1220, 0.0660
49.1323, 0.0660
49.1426, 0.0503
49.1529, 0.0486
49.1632, 0.0642
49.1735, 0.0469
49.1838, 0.0764
49.1941, 0.0521
49.2044, 0.0694
49.2147, 0.0538
49.2250, 0.0556
49.2353, 0.0712
49.2456, 0.0747
49.2559, 0.0590
49.2662, 0.0660
49.2765, 0.0469
49.2868, 0.0747
49.2971, 0.0556
49.3075, 0.0781
49.3178, 0.0590
49.3281, 0.0660
49.3384, 0.0816
49.3487, 0.0799
49.3590, 0.0538
49.3693, 0.0608
49.3796, 0.0799
49.3899, 0.0642
49.4002, 0.0903
49.4105, 0.0660
49.4208, 0.0868
49.4311, 0.0955
49.4414, 0.0781
49.4517, 0.0990
49.4620, 0.0885
49.4723, 0.0833
49.4826, 0.0885
49.4929, 0.0781
49.5032, 0.0781
49.5135, 0.0816
49.5238, 0.0764
49.5341, 0.0712
49.5444, 0.0642
49.5547, 0.0556
49.5651, 0.0729
49.5754, 0.0642
49.5857, 0.0642
49.5960, 0.0764
49.6063, 0.0885
49.6166, 0.0712
49.6269, 0.0868
49.6372, 0.0660
49.6475, 0.0573
49.6578, 0.0885
49.6681, 0.0816
49.6784, 0.0694
49.6887, 0.0625
49.6990, 0.0677
49.7093, 0.0885
49.7196, 0.0816
49.7299, 0.0660
49.7402, 0.0642
49.7505, 0.0816
49.7608, 0.0608
49.7711, 0.0677
49.7814, 0.0851
49.7917, 0.0590
49.8020, 0.0938
49.8124, 0.0764
49.8227, 0.1076
49.8330, 0.0851
49.8433, 0.0660
49.8536, 0.0851
49.8639, 0.0851
49.8742, 0.0799
49.8845, 0.1198
49.8948, 0.1285
49.9051, 0.1024
49.9154, 0.1163
49.9257, 0.0868
49.9360, 0.0990
49.9463, 0.1076
49.9566, 0.0938
49.9669, 0.1059
49.9772, 0.1406
49.9875, 0.1441
49.9978, 0.1372
50.0081, 0.1389
50.0184, 0.1406
50.0287, 0.1389
50.0390, 0.1545
50.0493, 0.1389
50.0596, 0.1215
50.0700, 0.1111
50.0803, 0.1337
50.0906, 0.1545
50.1009, 0.1458
50.1112, 0.1163
50.1215, 0.1250
50.1318, 0.1163
50.1421, 0.1059
50.1524, 0.1163
50.1627, 0.1337
50.1730, 0.1024
50.1833, 0.1146
50.1936, 0.1111
50.2039, 0.0972
50.2142, 0.0816
50.2245, 0.0938
50.2348, 0.0903
50.2451, 0.0903
50.2554, 0.0972
50.2657, 0.0885
50.2760, 0.0903
50.2863, 0.0781
50.2966, 0.0712
50.3069, 0.0729
50.3173, 0.0556
50.3276, 0.0851
50.3379, 0.1007
50.3482, 0.0799
50.3585, 0.0660
50.3688, 0.0694
50.3791, 0.0590
50.3894, 0.0938
50.3997, 0.0764
50.4100, 0.0816
50.4203, 0.0573
50.4306, 0.0486
50.4409, 0.0660
50.4512, 0.0625
50.4615, 0.0712
50.4718, 0.0660
50.4821, 0.0660
50.4924, 0.0538
50.5027, 0.0677
50.5130, 0.0712
50.5233, 0.0712
50.5336, 0.0677
50.5439, 0.0625
50.5542, 0.0590
50.5645, 0.0625
50.5749, 0.0573
50.5852, 0.0590
50.5955, 0.0556
50.6058, 0.0538
50.6161, 0.0677
50.6264, 0.0625
50.6367, 0.0677
50.6470, 0.0469
50.6573, 0.0573
50.6676, 0.0556
50.6779, 0.0764
50.6882, 0.0677
50.6985, 0.0660
50.7088, 0.0729
50.7191, 0.0573
50.7294, 0.0469
50.7397, 0.0677
50.7500, 0.0608
50.7603, 0.0625
50.7706, 0.0608
50.7809, 0.0590
50.7912, 0.0625
50.8015, 0.0573
50.8118, 0.0556
50.8221, 0.0747
50.8325, 0.0625
50.8428, 0.0451
50.8531, 0.0729
50.8634, 0.0694
50.8737, 0.0486
50.8840, 0.0608
50.8943, 0.0469
50.9046, 0.0625
50.9149, 0.0625
50.9252, 0.0747
50.9355, 0.0816
50.9458, 0.0712
50.9561, 0.0573
50.9664, 0.0660
50.9767, 0.0521
50.9870, 0.0712
50.9973, 0.0469
51.0076, 0.0469
51.0179, 0.0747
51.0282, 0.0521
51.0385, 0.0503
51.0488, 0.0503
51.0591, 0.0469
51.0694, 0.0538
51.0798, 0.0538
51.0901, 0.0642
51.1004, 0.0503
51.1107, 0.0590
51.1210, 0.0538
51.1313, 0.0660
51.1416, 0.0816
51.1519, 0.0608
51.1622, 0.0781
51.1725, 0.0712
51.1828, 0.0521
51.1931, 0.0521
51.2034, 0.0781
51.2137, 0.0694
51.2240, 0.0642
51.2343, 0.0573
51.2446, 0.0608
51.2549, 0.0573
51.2652, 0.0642
51.2755, 0.0538
51.2858, 0.0451
51.2961, 0.0573
51.3064, 0.0625
51.3167, 0.0781
51.3270, 0.0781
51.3374, 0.0764
51.3477, 0.0642
51.3580, 0.0712
51.3683, 0.0503
51.3786, 0.0677
51.3889, 0.0521
51.3992, 0.0556
51.4095, 0.0625
51.4198, 0.0608
51.4301, 0.0677
51.4404, 0.0608
51.4507, 0.0590
51.4610, 0.0729
51.4713, 0.0764
51.4816, 0.0625
51.4919, 0.0781
51.5022, 0.0538
51.5125, 0.0660
51.5228, 0.0521
51.5331, 0.0486
51.5434, 0.0833
51.5537, 0.0556
51.5640, 0.0781
51.5743, 0.0712
51.5846, 0.0642
51.5950, 0.0764
51.6053, 0.0590
51.6156, 0.0729
51.6259, 0.0608
51.6362, 0.0625
51.6465, 0.0781
51.6568, 0.0642
51.6671, 0.0712
51.6774, 0.0590
51.6877, 0.0469
51.6980, 0.0642
51.7083, 0.0590
51.7186, 0.0729
51.7289, 0.0486
51.7392, 0.0625
51.7495, 0.0608
51.7598, 0.0747
51.7701, 0.0538
51.7804, 0.0538
51.7907, 0.0642
51.8010, 0.0712
51.8113, 0.0642
51.8216, 0.0556
51.8319, 0.0503
51.8423, 0.0990
51.8526, 0.0677
51.8629, 0.0677
51.8732, 0.0885
51.8835, 0.0608
51.8938, 0.0781
51.9041, 0.0833
51.9144, 0.0747
51.9247, 0.0573
51.9350, 0.0625
51.9453, 0.0764
51.9556, 0.0833
51.9659, 0.0642
51.9762, 0.0990
51.9865, 0.0642
51.9968, 0.0660
52.0071, 0.0660
52.0174, 0.0833
52.0277, 0.0642
52.0380, 0.0747
52.0483, 0.0694
52.0586, 0.0851
52.0689, 0.0833
52.0792, 0.0712
52.0895, 0.0469
52.0999, 0.0712
52.1102, 0.0521
52.1205, 0.0642
52.1308, 0.0660
52.1411, 0.0660
52.1514, 0.0764
52.1617, 0.0972
52.1720, 0.0816
52.1823, 0.0642
52.1926, 0.0625
52.2029, 0.0590
52.2132, 0.0660
52.2235, 0.0920
52.2338, 0.0677
52.2441, 0.0694
52.2544, 0.0833
52.2647, 0.0747
52.2750, 0.0747
52.2853, 0.0781
52.2956, 0.0816
52.3059, 0.0625
52.3162, 0.0503
52.3265, 0.0764
52.3368, 0.0799
52.3471, 0.0885
52.3575, 0.0781
52.3678, 0.0972
52.3781, 0.0903
52.3884, 0.0885
52.3987, 0.0642
52.4090, 0.0885
52.4193, 0.0833
52.4296, 0.0781
52.4399, 0.0712
52.4502, 0.0521
52.4605, 0.0851
52.4708, 0.0694
52.4811, 0.0712
52.4914, 0.0972
52.5017, 0.0747
52.5120, 0.0486
52.5223, 0.0799
52.5326, 0.0833
52.5429, 0.0677
52.5532, 0.0521
52.5635, 0.0764
52.5738, 0.0816
52.5841, 0.0625
52.5944, 0.0642
52.6048, 0.0677
52.6151, 0.0694
52.6254, 0.0833
52.6357, 0.0781
52.6460, 0.0712
52.6563, 0.0764
52.6666, 0.0503
52.6769, 0.0747
52.6872, 0.0938
52.6975, 0.0833
52.7078, 0.0712
52.7181, 0.0833
52.7284, 0.0799
52.7387, 0.0781
52.7490, 0.0920
52.7593, 0.0590
52.7696, 0.0642
52.7799, 0.0747
52.7902, 0.0833
52.8005, 0.0642
52.8108, 0.0938
52.8211, 0.0816
52.8314, 0.0712
52.8417, 0.0833
52.8520, 0.0556
52.8624, 0.0799
52.8727, 0.0920
52.8830, 0.0833
52.8933, 0.0747
52.9036, 0.0799
52.9139, 0.0694
52.9242, 0.0903
52.9345, 0.0642
52.9448, 0.0764
52.9551, 0.0677
52.9654, 0.0729
52.9757, 0.0972
52.9860, 0.0729
52.9963, 0.0885
53.0066, 0.0833
53.0169, 0.0938
53.0272, 0.0608
53.0375, 0.0729
53.0478, 0.1198
53.0581, 0.0799
53.0684, 0.0885
53.0787, 0.0694
53.0890, 0.0903
53.0993, 0.0868
53.1097, 0.0764
53.1200, 0.0729
53.1303, 0.0608
53.1406, 0.0920
53.1509, 0.0799
53.1612, 0.1094
53.1715, 0.0747
53.1818, 0.0885
53.1921, 0.0955
53.2024, 0.1024
53.2127, 0.0851
53.2230, 0.0903
53.2333, 0.0868
53.2436, 0.1042
53.2539, 0.1215
53.2642, 0.1181
53.2745, 0.1094
53.2848, 0.1111
53.2951, 0.1458
53.3054, 0.1215
53.3157, 0.1042
53.3260, 0.1319
53.3363, 0.1146
53.3466, 0.1076
53.3569, 0.1250
53.3673, 0.1372
53.3776, 0.1233
53.3879, 0.1528
53.3982, 0.1510
53.4085, 0.1615
53.4188, 0.1267
53.4291, 0.1667
53.4394, 0.1649
53.4497, 0.1146
53.4600, 0.1840
53.4703, 0.1719
53.4806, 0.1997
53.4909, 0.1788
53.5012, 0.1910
53.5115, 0.2014
53.5218, 0.1962
53.5321, 0.2014
53.5424, 0.1771
53.5527, 0.2083
53.5630, 0.2448
53.5733, 0.2986
53.5836, 0.2587
53.5939, 0.2969
53.6042, 0.2639
53.6145, 0.2813
53.6249, 0.3160
53.6352, 0.3524
53.6455, 0.3854
53.6558, 0.3681
53.6661, 0.4392
53.6764, 0.3976
53.6867, 0.4583
53.6970, 0.4375
53.7073, 0.4566
53.7176, 0.5174
53.7279, 0.5538
53.7382, 0.5486
53.7485, 0.5382
53.7588, 0.5243
53.7691, 0.5191
53.7794, 0.5660
53.7897, 0.5486
53.8000, 0.5625
53.8103, 0.5087
53.8206, 0.5052
53.8309, 0.4149
53.8412, 0.5226
53.8515, 0.4601
53.8618, 0.4549
53.8722, 0.4271
53.8825, 0.3993
53.8928, 0.4948
53.9031, 0.4010
53.9134, 0.4010
53.9237, 0.3542
53.9340, 0.3160
53.9443, 0.3576
53.9546, 0.3108
53.9649, 0.3316
53.9752, 0.2934
53.9855, 0.2778
53.9958, 0.2986
54.0061, 0.2969
54.0164, 0.2604
54.0267, 0.2708
54.0370, 0.2569
54.0473, 0.2240
54.0576, 0.2760
54.0679, 0.2726
54.0782, 0.1910
54.0885, 0.2049
54.0988, 0.2257
54.1091, 0.1875
54.1194, 0.1667
54.1298, 0.1597
54.1401, 0.1806
54.1504, 0.1337
54.1607, 0.1719
54.1710, 0.1528
54.1813, 0.1441
54.1916, 0.1719
54.2019, 0.1632
54.2122, 0.1528
54.2225, 0.1389
54.2328, 0.1406
54.2431, 0.1389
54.2534, 0.1354
54.2637, 0.1545
54.2740, 0.1059
54.2843, 0.1337
54.2946, 0.1285
54.3049, 0.1146
54.3152, 0.1076
54.3255, 0.1233
54.3358, 0.1042
54.3461, 0.1024
54.3564, 0.1250
54.3667, 0.0816
54.3770, 0.1354
54.3874, 0.0833
54.3977, 0.0799
54.4080, 0.1076
54.4183, 0.0885
54.4286, 0.0920
54.4389, 0.0903
54.4492, 0.1007
54.4595, 0.1094
54.4698, 0.0990
54.4801, 0.0990
54.4904, 0.1024
54.5007, 0.1042
54.5110, 0.0833
54.5213, 0.0885
54.5316, 0.0833
54.5419, 0.0851
54.5522, 0.1076
54.5625, 0.0972
54.5728, 0.0990
54.5831, 0.0816
54.5934, 0.0816
54.6037, 0.0903
54.6140, 0.0729
54.6243, 0.0729
54.6347, 0.0938
54.6450, 0.0816
54.6553, 0.0712
54.6656, 0.0799
54.6759, 0.0972
54.6862, 0.0903
54.6965, 0.0868
54.7068, 0.0799
54.7171, 0.0885
54.7274, 0.0816
54.7377, 0.0816
54.7480, 0.0972
54.7583, 0.0816
54.7686, 0.0799
54.7789, 0.0833
54.7892, 0.0972
54.7995, 0.0972
54.8098, 0.1007
54.8201, 0.1094
54.8304, 0.1076
54.8407, 0.0955
54.8510, 0.0955
54.8613, 0.0816
54.8716, 0.1146
54.8819, 0.1059
54.8923, 0.1181
54.9026, 0.1163
54.9129, 0.0990
54.9232, 0.1163
54.9335, 0.1302
54.9438, 0.1233
54.9541, 0.1024
54.9644, 0.1007
54.9747, 0.0990
54.9850, 0.0764
54.9953, 0.1076
55.0056, 0.1233
55.0159, 0.1024
55.0262, 0.1233
55.0365, 0.1233
55.0468, 0.0885
55.0571, 0.1198
55.0674, 0.1042
55.0777, 0.1337
55.0880, 0.1146
55.0983, 0.1024
55.1086, 0.0972
55.1189, 0.1024
55.1292, 0.1059
55.1395, 0.1024
55.1499, 0.1094
55.1602, 0.1181
55.1705, 0.0955
55.1808, 0.1181
55.1911, 0.1111
55.2014, 0.1076
55.2117, 0.1042
55.2220, 0.0799
55.2323, 0.0833
55.2426, 0.0955
55.2529, 0.1024
55.2632, 0.0833
55.2735, 0.0990
55.2838, 0.0955
55.2941, 0.1163
55.3044, 0.1007
55.3147, 0.0955
55.3250, 0.1042
55.3353, 0.0833
55.3456, 0.0851
55.3559, 0.1024
55.3662, 0.0816
55.3765, 0.1042
55.3868, 0.0972
55.3972, 0.0729
55.4075, 0.1146
55.4178, 0.0851
55.4281, 0.0885
55.4384, 0.1111
55.4487, 0.0799
55.4590, 0.0851
55.4693, 0.0816
55.4796, 0.0938
55.4899, 0.1059
55.5002, 0.0903
55.5105, 0.0868
55.5208, 0.0885
55.5311, 0.0938
55.5414, 0.1181
55.5517, 0.0885
55.5620, 0.1076
55.5723, 0.0799
55.5826, 0.1042
55.5929, 0.0920
55.6032, 0.0851
55.6135, 0.0868
55.6238, 0.0747
55.6341, 0.0955
55.6444, 0.0955
55.6548, 0.1076
55.6651, 0.1042
55.6754, 0.0885
55.6857, 0.0972
55.6960, 0.0642
55.7063, 0.0851
55.7166, 0.0938
55.7269, 0.0781
55.7372, 0.0903
55.7475, 0.0781
55.7578, 0.0851
55.7681, 0.0938
55.7784, 0.0885
55.7887, 0.0868
55.7990, 0.0868
55.8093, 0.0660
55.8196, 0.0851
55.8299, 0.0885
55.8402, 0.1042
55.8505, 0.1059
55.8608, 0.0799
55.8711, 0.0590
55.8814, 0.0833
55.8917, 0.0990
55.9021, 0.0729
55.9124, 0.0868
55.9227, 0.0851
55.9330, 0.0642
55.9433, 0.0885
55.9536, 0.1163
55.9639, 0.0851
55.9742, 0.0885
55.9845, 0.1094
55.9948, 0.0764
56.0051, 0.1007
56.0154, 0.1337
56.0257, 0.1198
56.0360, 0.0955
56.0463, 0.0938
56.0566, 0.1094
56.0669, 0.0816
56.0772, 0.1146
56.0875, 0.0990
56.0978, 0.0955
56.1081, 0.0955
56.1184, 0.1146
56.1287, 0.1024
56.1390, 0.1128
56.1493, 0.1128
56.1597, 0.1198
56.1700, 0.0903
56.1803, 0.0938
56.1906, 0.0816
56.2009, 0.1042
56.2112, 0.0955
56.2215, 0.0833
56.2318, 0.1076
56.2421, 0.0764
56.2524, 0.1007
56.2627, 0.1441
56.2730, 0.1267
56.2833, 0.1267
56.2936, 0.1111
56.3039, 0.1302
56.3142, 0.0885
56.3245, 0.1042
56.3348, 0.1111
56.3451, 0.1059
56.3554, 0.1372
56.3657, 0.1111
56.3760, 0.1094
56.3863, 0.1094
56.3966, 0.1042
56.4069, 0.1128
56.4173, 0.1128
56.4276, 0.1111
56.4379, 0.0903
56.4482, 0.1198
56.4585, 0.1163
56.4688, 0.1181
56.4791, 0.0972
56.4894, 0.1094
56.4997, 0.1181
56.5100, 0.1111
56.5203, 0.1163
56.5306, 0.1250
56.5409, 0.1076
56.5512, 0.1372
56.5615, 0.1510
56.5718, 0.1354
56.5821, 0.1181
56.5924, 0.1285
56.6027, 0.1736
56.6130, 0.1163
56.6233, 0.1302
56.6336, 0.1424
56.6439, 0.1406
56.6542, 0.1424
56.6646, 0.1198
56.6749, 0.1528
56.6852, 0.1111
56.6955, 0.1580
56.7058, 0.1094
56.7161, 0.1701
56.7264, 0.1476
56.7367, 0.1389
56.7470, 0.1250
56.7573, 0.1458
56.7676, 0.1476
56.7779, 0.1545
56.7882, 0.1493
56.7985, 0.1615
56.8088, 0.1545
56.8191, 0.1632
56.8294, 0.1389
56.8397, 0.1858
56.8500, 0.1875
56.8603, 0.1944
56.8706, 0.1840
56.8809, 0.2326
56.8912, 0.1927
56.9015, 0.2344
56.9118, 0.2309
56.9222, 0.1979
56.9325, 0.2396
56.9428, 0.2639
56.9531, 0.2292
56.9634, 0.2587
56.9737, 0.2830
56.9840, 0.3038
56.9943, 0.3003
57.0046, 0.2726
57.0149, 0.3177
57.0252, 0.3194
57.0355, 0.3368
57.0458, 0.3698
57.0561, 0.3733
57.0664, 0.3958
57.0767, 0.4253
57.0870, 0.4653
57.0973, 0.4497
57.1076, 0.4601
57.1179, 0.5156
57.1282, 0.5503
57.1385, 0.5521
57.1488, 0.6181
57.1591, 0.6215
57.1694, 0.6753
57.1798, 0.7049
57.1901, 0.8038
57.2004, 0.8889
57.2107, 0.9809
57.2210, 0.9948
57.2313, 1.0538
57.2416, 1.0799
57.2519, 1.1233
57.2622, 1.1233
57.2725, 1.1372
57.2828, 1.1337
57.2931, 1.1649
57.3034, 1.1389
57.3137, 1.1493
57.3240, 1.0920
57.3343, 1.2344
57.3446, 1.1788
57.3549, 1.0590
57.3652, 1.0972
57.3755, 1.2378
57.3858, 1.1997
57.3961, 1.1111
57.4064, 1.0087
57.4167, 1.0625
57.4271, 1.0226
57.4374, 0.9878
57.4477, 0.9809
57.4580, 0.9444
57.4683, 0.9323
57.4786, 0.8681
57.4889, 0.8750
57.4992, 0.8160
57.5095, 0.8003
57.5198, 0.6615
57.5301, 0.6580
57.5404, 0.6458
57.5507, 0.5694
57.5610, 0.6337
57.5713, 0.5191
57.5816, 0.5226
57.5919, 0.4965
57.6022, 0.4688
57.6125, 0.4132
57.6228, 0.4271
57.6331, 0.4601
57.6434, 0.4149
57.6537, 0.3628
57.6640, 0.3576
57.6743, 0.3559
57.6847, 0.3264
57.6950, 0.2795
57.7053, 0.2830
57.7156, 0.2674
57.7259, 0.2830
57.7362, 0.2708
57.7465, 0.2622
57.7568, 0.2674
57.7671, 0.2500
57.7774, 0.2552
57.7877, 0.2292
57.7980, 0.1580
57.8083, 0.1910
57.8186, 0.2031
57.8289, 0.2188
57.8392, 0.1667
57.8495, 0.1545
57.8598, 0.1927
57.8701, 0.2014
57.8804, 0.1892
57.8907, 0.1875
57.9010, 0.1944
57.9113, 0.1875
57.9216, 0.1753
57.9319, 0.1858
57.9423, 0.1580
57.9526, 0.1215
57.9629, 0.1458
57.9732, 0.1528
57.9835, 0.1806
57.9938, 0.1545
58.0041, 0.1545
58.0144, 0.1389
58.0247, 0.1632
58.0350, 0.1667
58.0453, 0.1545
58.0556, 0.1389
58.0659, 0.1424
58.0762, 0.1615
58.0865, 0.1111
58.0968, 0.1476
58.1071, 0.1389
58.1174, 0.1163
58.1277, 0.1493
58.1380, 0.1649
58.1483, 0.1163
58.1586, 0.1337
58.1689, 0.1198
58.1792, 0.1076
58.1896, 0.1545
58.1999, 0.1233
58.2102, 0.1198
58.2205, 0.1372
58.2308, 0.1267
58.2411, 0.1163
58.2514, 0.1059
58.2617, 0.1233
58.2720, 0.1163
58.2823, 0.1146
58.2926, 0.1111
58.3029, 0.1198
58.3132, 0.1128
58.3235, 0.1128
58.3338, 0.1111
58.3441, 0.0920
58.3544, 0.1111
58.3647, 0.1007
58.3750, 0.0955
58.3853, 0.0990
58.3956, 0.1094
58.4059, 0.1076
58.4162, 0.0903
58.4265, 0.1059
58.4368, 0.1181
58.4472, 0.0955
58.4575, 0.1128
58.4678, 0.1059
58.4781, 0.1302
58.4884, 0.0816
58.4987, 0.0781
58.5090, 0.0799
58.5193, 0.1094
58.5296, 0.0920
58.5399, 0.1233
58.5502, 0.1250
58.5605, 0.1250
58.5708, 0.0885
58.5811, 0.0816
58.5914, 0.0781
58.6017, 0.1146
58.6120, 0.1042
58.6223, 0.0972
58.6326, 0.1076
58.6429, 0.1059
58.6532, 0.0990
58.6635, 0.0868
58.6738, 0.1094
58.6841, 0.0816
58.6945, 0.1024
58.7048, 0.0990
58.7151, 0.1059
58.7254, 0.1111
58.7357, 0.0903
58.7460, 0.0903
58.7563, 0.0851
58.7666, 0.0920
58.7769, 0.1042
58.7872, 0.0955
58.7975, 0.0799
58.8078, 0.0781
58.8181, 0.0868
58.8284, 0.0608
58.8387, 0.0747
58.8490, 0.0799
58.8593, 0.0955
58.8696, 0.0851
58.8799, 0.0868
58.8902, 0.0712
58.9005, 0.0868
58.9108, 0.0990
58.9211, 0.0781
58.9314, 0.0764
58.9417, 0.0938
58.9521, 0.0712
58.9624, 0.1163
58.9727, 0.0920
58.9830, 0.0608
58.9933, 0.0851
59.0036, 0.0712
59.0139, 0.0972
59.0242, 0.0781
59.0345, 0.0833
59.0448, 0.0833
59.0551, 0.0781
59.0654, 0.0903
59.0757, 0.0868
59.0860, 0.0712
59.0963, 0.0972
59.1066, 0.0868
59.1169, 0.0851
59.1272, 0.0816
59.1375, 0.0868
59.1478, 0.0747
59.1581, 0.0938
59.1684, 0.0781
59.1787, 0.0920
59.1890, 0.0938
59.1993, 0.0729
59.2097, 0.1128
59.2200, 0.0920
59.2303, 0.0920
59.2406, 0.0920
59.2509, 0.0712
59.2612, 0.0677
59.2715, 0.0920
59.2818, 0.0833
59.2921, 0.0920
59.3024, 0.0903
59.3127, 0.0764
59.3230, 0.1111
59.3333, 0.0990
59.3436, 0.0799
59.3539, 0.0833
59.3642, 0.1128
59.3745, 0.0903
59.3848, 0.0920
59.3951, 0.1094
59.4054, 0.1146
59.4157, 0.0938
59.4260, 0.1024
59.4363, 0.0972
59.4466, 0.0972
59.4570, 0.0868
59.4673, 0.0903
59.4776, 0.0990
59.4879, 0.1267
59.4982, 0.0885
59.5085, 0.1024
59.5188, 0.1441
59.5291, 0.1198
59.5394, 0.1215
59.5497, 0.0903
59.5600, 0.1024
59.5703, 0.0729
59.5806, 0.1111
59.5909, 0.0955
59.6012, 0.0868
59.6115, 0.1528
59.6218, 0.1059
59.6321, 0.1302
59.6424, 0.1389
59.6527, 0.1042
59.6630, 0.1337
59.6733, 0.1128
59.6836, 0.1198
59.6939, 0.1094
59.7042, 0.1389
59.7146, 0.1094
59.7249, 0.1059
59.7352, 0.1042
59.7455, 0.1389
59.7558, 0.0955
59.7661, 0.1059
59.7764, 0.1146
59.7867, 0.1076
59.7970, 0.1233
59.8073, 0.1215
59.8176, 0.1111
59.8279, 0.1059
59.8382, 0.1024
59.8485, 0.0920
59.8588, 0.0938
59.8691, 0.1007
59.8794, 0.0816
59.8897, 0.0920
59.9000, 0.0903
59.9103, 0.0851
59.9206, 0.0990
59.9309, 0.0885
59.9412, 0.0938
59.9515, 0.0920
59.9618, 0.0955
59.9722, 0.1042
59.9825, 0.0920
59.9928, 0.0990
60.0031, 0.1007
60.0134, 0.0833
60.0237, 0.0938
60.0340, 0.0903
60.0443, 0.0851
60.0546, 0.0990
60.0649, 0.0833
60.0752, 0.0938
60.0855, 0.0868
60.0958, 0.0868
60.1061, 0.0885
60.1164, 0.0799
60.1267, 0.0816
60.1370, 0.1146
60.1473, 0.1215
60.1576, 0.0799
60.1679, 0.0694
60.1782, 0.0833
60.1885, 0.0972
60.1988, 0.1076
60.2091, 0.0833
60.2195, 0.1076
60.2298, 0.1042
60.2401, 0.0816
60.2504, 0.1024
60.2607, 0.1042
60.2710, 0.0972
60.2813, 0.1007
60.2916, 0.0816
60.3019, 0.0816
60.3122, 0.1007
60.3225, 0.0938
60.3328, 0.1007
60.3431, 0.1007
60.3534, 0.0885
60.3637, 0.0781
60.3740, 0.1042
60.3843, 0.0816
60.3946, 0.1059
60.4049, 0.1076
60.4152, 0.0920
60.4255, 0.1059
60.4358, 0.1146
60.4461, 0.1076
60.4564, 0.1024
60.4667, 0.0920
60.4771, 0.1076
60.4874, 0.1146
60.4977, 0.1042
60.5080, 0.1267
60.5183, 0.1128
60.5286, 0.1215
60.5389, 0.1510
60.5492, 0.0955
60.5595, 0.1389
60.5698, 0.1267
60.5801, 0.1319
60.5904, 0.1476
60.6007, 0.1441
60.6110, 0.1337
60.6213, 0.1476
60.6316, 0.1545
60.6419, 0.1563
60.6522, 0.1389
60.6625, 0.1632
60.6728, 0.1458
60.6831, 0.1806
60.6934, 0.1649
60.7037, 0.1250
60.7140, 0.1458
60.7243, 0.1719
60.7347, 0.1944
60.7450, 0.1528
60.7553, 0.1736
60.7656, 0.1597
60.7759, 0.1545
60.7862, 0.1545
60.7965, 0.1736
60.8068, 0.1649
60.8171, 0.1771
60.8274, 0.1632
60.8377, 0.1441
60.8480, 0.1840
60.8583, 0.1493
60.8686, 0.1372
60.8789, 0.1354
60.8892, 0.1493
60.8995, 0.1163
60.9098, 0.1233
60.9201, 0.1458
60.9304, 0.1406
60.9407, 0.1198
60.9510, 0.1372
60.9613, 0.1076
60.9716, 0.1128
60.9820, 0.1372
60.9923, 0.1372
61.0026, 0.1302
61.0129, 0.1181
61.0232, 0.1337
61.0335, 0.1146
61.0438, 0.1111
61.0541, 0.1285
61.0644, 0.1042
61.0747, 0.1094
61.0850, 0.1215
61.0953, 0.1389
61.1056, 0.1181
61.1159, 0.0955
61.1262, 0.1007
61.1365, 0.1076
61.1468, 0.1163
61.1571, 0.0972
61.1674, 0.1076
61.1777, 0.1163
61.1880, 0.1215
61.1983, 0.1146
61.2086, 0.0955
61.2189, 0.1024
61.2292, 0.1163
61.2396, 0.1042
61.2499, 0.0833
61.2602, 0.1181
61.2705, 0.0851
61.2808, 0.1267
61.2911, 0.1163
61.3014, 0.1233
61.3117, 0.1042
61.3220, 0.1094
61.3323, 0.1094
61.3426, 0.0972
61.3529, 0.0955
61.3632, 0.1042
61.3735, 0.1111
61.3838, 0.0781
61.3941, 0.1111
61.4044, 0.0781
61.4147, 0.1215
61.4250, 0.0885
61.4353, 0.0851
61.4456, 0.1007
61.4559, 0.0920
61.4662, 0.1441
61.4765, 0.0938
61.4868, 0.1059
61.4972, 0.1198
61.5075, 0.0938
61.5178, 0.1302
61.5281, 0.1007
61.5384, 0.1007
61.5487, 0.1059
61.5590, 0.0990
61.5693, 0.0990
61.5796, 0.1233
61.5899, 0.0851
61.6002, 0.1042
61.6105, 0.1094
61.6208, 0.1181
61.6311, 0.1146
61.6414, 0.1198
61.6517, 0.1076
61.6620, 0.1059
61.6723, 0.1111
61.6826, 0.1233
61.6929, 0.1007
61.7032, 0.0885
61.7135, 0.0851
61.7238, 0.0868
61.7341, 0.1146
61.7445, 0.1163
61.7548, 0.1163
61.7651, 0.1146
61.7754, 0.0851
61.7857, 0.1302
61.7960, 0.1181
61.8063, 0.1233
61.8166, 0.1563
61.8269, 0.1111
61.8372, 0.1146
61.8475, 0.1267
61.8578, 0.1128
61.8681, 0.1215
61.8784, 0.1267
61.8887, 0.1007
61.8990, 0.1458
61.9093, 0.1076
61.9196, 0.1198
61.9299, 0.1181
61.9402, 0.1319
61.9505, 0.1076
61.9608, 0.1267
61.9711, 0.1076
61.9814, 0.1285
61.9917, 0.1111
62.0021, 0.1267
62.0124, 0.1094
62.0227, 0.1424
62.0330, 0.1302
62.0433, 0.1128
62.0536, 0.1198
62.0639, 0.1215
62.0742, 0.1285
62.0845, 0.1285
62.0948, 0.1476
62.1051, 0.1406
62.1154, 0.1042
62.1257, 0.1181
62.1360, 0.1580
62.1463, 0.1233
62.1566, 0.1736
62.1669, 0.1302
62.1772, 0.1667
62.1875, 0.1372
62.1978, 0.1753
62.2081, 0.1198
62.2184, 0.1198
62.2287, 0.1389
62.2390, 0.1667
62.2494, 0.1302
62.2597, 0.1962
62.2700, 0.2066
62.2803, 0.1615
62.2906, 0.1615
62.3009, 0.1597
62.3112, 0.1719
62.3215, 0.1719
62.3318, 0.2170
62.3421, 0.1597
62.3524, 0.1806
62.3627, 0.2378
62.3730, 0.2066
62.3833, 0.1667
62.3936, 0.2101
62.4039, 0.2118
62.4142, 0.2674
62.4245, 0.2066
62.4348, 0.2153
62.4451, 0.2378
62.4554, 0.2257
62.4657, 0.2361
62.4760, 0.2691
62.4863, 0.2882
62.4966, 0.2726
62.5070, 0.2813
62.5173, 0.2778
62.5276, 0.2813
62.5379, 0.2639
62.5482, 0.3142
62.5585, 0.3385
62.5688, 0.3420
62.5791, 0.3177
62.5894, 0.3576
62.5997, 0.3958
62.6100, 0.3802
62.6203, 0.3438
62.6306, 0.4184
62.6409, 0.4115
62.6512, 0.4774
62.6615, 0.4740
62.6718, 0.4635
62.6821, 0.4948
62.6924, 0.5313
62.7027, 0.5365
62.7130, 0.6128
62.7233, 0.5642
62.7336, 0.6163
62.7439, 0.7049
62.7542, 0.6979
62.7646, 0.7101
62.7749, 0.8594
62.7852, 0.9097
62.7955, 0.9201
62.8058, 1.0156
62.8161, 1.1372
62.8264, 1.1094
62.8367, 1.1719
62.8470, 1.3003
62.8573, 1.4323
62.8676, 1.3368
62.8779, 1.4358
62.8882, 1.5573
62.8985, 1.5486
62.9088, 1.7222
62.9191, 1.6615
62.9294, 1.7014
62.9397, 1.8194
62.9500, 1.8056
62.9603, 1.6701
62.9706, 1.6128
62.9809, 1.6319
62.9912, 1.5486
63.0015, 1.5625
63.0119, 1.5677
63.0222, 1.5347
63.0325, 1.5451
63.0428, 1.5538
63.0531, 1.4080
63.0634, 1.4010
63.0737, 1.4236
63.0840, 1.2847
63.0943, 1.3316
63.1046, 1.2951
63.1149, 1.2049
63.1252, 1.2535
63.1355, 1.1910
63.1458, 1.0694
63.1561, 1.0608
63.1664, 0.9549
63.1767, 0.9410
63.1870, 0.9740
63.1973, 0.8681
63.2076, 0.7778
63.2179, 0.8628
63.2282, 0.7743
63.2385, 0.6545
63.2488, 0.7691
63.2591, 0.6476
63.2695, 0.5920
63.2798, 0.5920
63.2901, 0.5677
63.3004, 0.5104
63.3107, 0.4878
63.3210, 0.4722
63.3313, 0.4722
63.3416, 0.4010
63.3519, 0.4115
63.3622, 0.3698
63.3725, 0.3559
63.3828, 0.3559
63.3931, 0.3733
63.4034, 0.3125
63.4137, 0.2986
63.4240, 0.2934
63.4343, 0.3194
63.4446, 0.3038
63.4549, 0.2899
63.4652, 0.2778
63.4755, 0.2448
63.4858, 0.2309
63.4961, 0.2674
63.5064, 0.2257
63.5167, 0.2170
63.5271, 0.2500
63.5374, 0.2049
63.5477, 0.2101
63.5580, 0.1944
63.5683, 0.2049
63.5786, 0.1927
63.5889, 0.2118
63.5992, 0.1979
63.6095, 0.1892
63.6198, 0.1736
63.6301, 0.1719
63.6404, 0.1597
63.6507, 0.1441
63.6610, 0.1684
63.6713, 0.1632
63.6816, 0.1528
63.6919, 0.1510
63.7022, 0.1510
63.7125, 0.1372
63.7228, 0.1441
63.7331, 0.1389
63.7434, 0.1580
63.7537, 0.1267
63.7640, 0.1250
63.7744, 0.1510
63.7847, 0.1510
63.7950, 0.1667
63.8053, 0.1406
63.8156, 0.1389
63.8259, 0.1267
63.8362, 0.1215
63.8465, 0.1233
63.8568, 0.1076
63.8671, 0.1354
63.8774, 0.1233
63.8877, 0.1424
63.8980, 0.1198
63.9083, 0.1267
63.9186, 0.1476
63.9289, 0.1510
63.9392, 0.1059
63.9495, 0.1406
63.9598, 0.1337
63.9701, 0.1476
63.9804, 0.1493
63.9907, 0.1545
64.0010, 0.1597
64.0113, 0.1372
64.0216, 0.1354
64.0320, 0.1250
64.0423, 0.1493
64.0526, 0.1458
64.0629, 0.1181
64.0732, 0.1406
64.0835, 0.1458
64.0938, 0.1076
64.1041, 0.1146
64.1144, 0.1233
64.1247, 0.1215
64.1350, 0.1528
64.1453, 0.1441
64.1556, 0.1510
64.1659, 0.1354
64.1762, 0.1476
64.1865, 0.0868
64.1968, 0.1285
64.2071, 0.1163
64.2174, 0.1250
64.2277, 0.1267
64.2380, 0.1215
64.2483, 0.1302
64.2586, 0.0938
64.2689, 0.0747
64.2792, 0.1458
64.2896, 0.0955
64.2999, 0.1042
64.3102, 0.0851
64.3205, 0.0903
64.3308, 0.0955
64.3411, 0.1372
64.3514, 0.1163
64.3617, 0.1059
64.3720, 0.0990
64.3823, 0.0903
64.3926, 0.1094
64.4029, 0.1094
64.4132, 0.0955
64.4235, 0.0920
64.4338, 0.0885
64.4441, 0.0990
64.4544, 0.0747
64.4647, 0.0816
64.4750, 0.0868
64.4853, 0.0851
64.4956, 0.0868
64.5059, 0.0972
64.5162, 0.1042
64.5265, 0.0868
64.5369, 0.0816
64.5472, 0.0920
64.5575, 0.0642
64.5678, 0.0938
64.5781, 0.1007
64.5884, 0.0851
64.5987, 0.1007
64.6090, 0.0903
64.6193, 0.0990
64.6296, 0.0660
64.6399, 0.0885
64.6502, 0.1007
64.6605, 0.0729
64.6708, 0.1007
64.6811, 0.0833
64.6914, 0.1094
64.7017, 0.0642
64.7120, 0.0903
64.7223, 0.1007
64.7326, 0.0781
64.7429, 0.1059
64.7532, 0.0677
64.7635, 0.0729
64.7738, 0.0764
64.7841, 0.0799
64.7945, 0.0955
64.8048, 0.0868
64.8151, 0.0729
64.8254, 0.0920
64.8357, 0.0799
64.8460, 0.0885
64.8563, 0.0833
64.8666, 0.0660
64.8769, 0.0885
64.8872, 0.0573
64.8975, 0.0694
64.9078, 0.0938
64.9181, 0.0747
64.9284, 0.0851
64.9387, 0.0573
64.9490, 0.0764
64.9593, 0.0972
64.9696, 0.0972
64.9799, 0.0885
64.9902, 0.1024
65.0005, 0.0868
65.0108, 0.0799
65.0211, 0.0833
65.0314, 0.1076
65.0418, 0.1128
65.0521, 0.1024
65.0624, 0.1007
65.0727, 0.0885
65.0830, 0.0903
65.0933, 0.0799
65.1036, 0.0799
65.1139, 0.0972
65.1242, 0.0990
65.1345, 0.0816
65.1448, 0.0920
65.1551, 0.0694
65.1654, 0.0833
65.1757, 0.1076
65.1860, 0.0903
65.1963, 0.0955
65.2066, 0.0955
65.2169, 0.0972
65.2272, 0.1198
65.2375, 0.0747
65.2478, 0.0885
65.2581, 0.0764
65.2684, 0.0955
65.2787, 0.0903
65.2890, 0.0729
65.2994, 0.0799
65.3097, 0.0816
65.3200, 0.0990
65.3303, 0.0747
65.3406, 0.0972
65.3509, 0.0920
65.3612, 0.0885
65.3715, 0.1059
65.3818, 0.0781
65.3921, 0.0573
65.4024, 0.0833
65.4127, 0.0764
65.4230, 0.0694
65.4333, 0.1024
65.4436, 0.0816
65.4539, 0.0851
65.4642, 0.0573
65.4745, 0.1042
65.4848, 0.0799
65.4951, 0.0868
65.5054, 0.0903
65.5157, 0.0938
65.5260, 0.0816
65.5363, 0.0642
65.5466, 0.0729
65.5570, 0.0903
65.5673, 0.0521
65.5776, 0.0764
65.5879, 0.0747
65.5982, 0.0920
65.6085, 0.0642
65.6188, 0.0642
65.6291, 0.0781
65.6394, 0.0816
65.6497, 0.0538
65.6600, 0.0642
65.6703, 0.0903
65.6806, 0.0799
65.6909, 0.0920
65.7012, 0.0799
65.7115, 0.0729
65.7218, 0.0521
65.7321, 0.0590
65.7424, 0.0694
65.7527, 0.0590
65.7630, 0.0660
65.7733, 0.0729
65.7836, 0.0712
65.7939, 0.0642
65.8043, 0.0816
65.8146, 0.0712
65.8249, 0.0573
65.8352, 0.0625
65.8455, 0.0816
65.8558, 0.0781
65.8661, 0.0799
65.8764, 0.0694
65.8867, 0.0642
65.8970, 0.0590
65.9073, 0.0608
65.9176, 0.0712
65.9279, 0.0642
65.9382, 0.0503
65.9485, 0.0608
65.9588, 0.0747
65.9691, 0.0764
65.9794, 0.0972
65.9897, 0.0729
66.0000, 0.0660
66.0103, 0.0608
66.0206, 0.0729
66.0309, 0.0747
66.0412, 0.0573
66.0515, 0.0538
66.0619, 0.0590
66.0722, 0.0538
66.0825, 0.0677
66.0928, 0.0625
66.1031, 0.0833
66.1134, 0.0642
66.1237, 0.0521
66.1340, 0.0694
66.1443, 0.0556
66.1546, 0.0764
66.1649, 0.0833
66.1752, 0.0868
66.1855, 0.0608
66.1958, 0.0781
66.2061, 0.0608
66.2164, 0.0677
66.2267, 0.0712
66.2370, 0.0729
66.2473, 0.0747
66.2576, 0.0816
66.2679, 0.0625
66.2782, 0.0694
66.2885, 0.0885
66.2988, 0.0729
66.3091, 0.0764
66.3195, 0.0747
66.3298, 0.0712
66.3401, 0.0764
66.3504, 0.0590
66.3607, 0.0625
66.3710, 0.0625
66.3813, 0.0417
66.3916, 0.0521
66.4019, 0.0712
66.4122, 0.0521
66.4225, 0.0538
66.4328, 0.0590
66.4431, 0.0590
66.4534, 0.0503
66.4637, 0.0781
66.4740, 0.0521
66.4843, 0.0486
66.4946, 0.0625
66.5049, 0.0660
66.5152, 0.0538
66.5255, 0.0764
66.5358, 0.0486
66.5461, 0.0556
66.5564, 0.0469
66.5668, 0.0469
66.5771, 0.0729
66.5874, 0.0642
66.5977, 0.0469
66.6080, 0.0677
66.6183, 0.0729
66.6286, 0.0642
66.6389, 0.0625
66.6492, 0.0486
66.6595, 0.0538
66.6698, 0.0486
66.6801, 0.0330
66.6904, 0.0469
66.7007, 0.0469
66.7110, 0.0486
66.7213, 0.0538
66.7316, 0.0521
66.7419, 0.0556
66.7522, 0.0365
66.7625, 0.0625
66.7728, 0.0590
66.7831, 0.0747
66.7934, 0.0660
66.8037, 0.0712
66.8140, 0.0642
66.8244, 0.0556
66.8347, 0.0503
66.8450, 0.0434
66.8553, 0.0434
66.8656, 0.0590
66.8759, 0.0660
66.8862, 0.0781
66.8965, 0.0503
66.9068, 0.0642
66.9171, 0.0642
66.9274, 0.0642
66.9377, 0.0694
66.9480, 0.0556
66.9583, 0.0660
66.9686, 0.0573
66.9789, 0.0625
66.9892, 0.0503
66.9995, 0.0694
67.0098, 0.0486
67.0201, 0.0573
67.0304, 0.0434
67.0407, 0.0538
67.0510, 0.0590
67.0613, 0.0503
67.0716, 0.0799
67.0820, 0.0660
67.0923, 0.0747
67.1026, 0.0712
67.1129, 0.0712
67.1232, 0.0365
67.1335, 0.0781
67.1438, 0.0677
67.1541, 0.0747
67.1644, 0.0747
67.1747, 0.0608
67.1850, 0.0729
67.1953, 0.0712
67.2056, 0.0608
67.2159, 0.0608
67.2262, 0.0642
67.2365, 0.0712
67.2468, 0.0677
67.2571, 0.0677
67.2674, 0.0642
67.2777, 0.0469
67.2880, 0.0729
67.2983, 0.0799
67.3086, 0.0521
67.3189, 0.0573
67.3293, 0.0694
67.3396, 0.0642
67.3499, 0.0486
67.3602, 0.0694
67.3705, 0.0694
67.3808, 0.0503
67.3911, 0.0712
67.4014, 0.0764
67.4117, 0.0608
67.4220, 0.0503
67.4323, 0.0590
67.4426, 0.0399
67.4529, 0.0660
67.4632, 0.0712
67.4735, 0.0608
67.4838, 0.0712
67.4941, 0.0816
67.5044, 0.0712
67.5147, 0.0729
67.5250, 0.0573
67.5353, 0.0590
67.5456, 0.0781
67.5559, 0.0694
67.5662, 0.0885
67.5765, 0.0608
67.5869, 0.0625
67.5972, 0.0642
67.6075, 0.0521
67.6178, 0.0573
67.6281, 0.0747
67.6384, 0.0399
67.6487, 0.0573
67.6590, 0.0521
67.6693, 0.0451
67.6796, 0.0417
67.6899, 0.0573
67.7002, 0.0573
67.7105, 0.0642
67.7208, 0.0608
67.7311, 0.0503
67.7414, 0.0451
67.7517, 0.0625
67.7620, 0.0486
67.7723, 0.0590
67.7826, 0.0625
67.7929, 0.0503
67.8032, 0.0503
67.8135, 0.0625
67.8238, 0.0590
67.8342, 0.0486
67.8445, 0.0712
67.8548, 0.0764
67.8651, 0.0590
67.8754, 0.0764
67.8857, 0.0521
67.8960, 0.0417
67.9063, 0.0486
67.9166, 0.0503
67.9269, 0.0469
67.9372, 0.0538
67.9475, 0.0677
67.9578, 0.0521
67.9681, 0.0521
67.9784, 0.0608
67.9887, 0.0556
67.9990, 0.0747
68.0093, 0.0521
68.0196, 0.0556
68.0299, 0.0365
68.0402, 0.0503
68.0505, 0.0851
68.0608, 0.0885
68.0711, 0.0573
68.0814, 0.0625
68.0918, 0.0556
68.1021, 0.0608
68.1124, 0.0608
68.1227, 0.0573
68.1330, 0.0573
68.1433, 0.0694
68.1536, 0.0590
68.1639, 0.0608
68.1742, 0.0590
68.1845, 0.0608
68.1948, 0.0660
68.2051, 0.0451
68.2154, 0.0729
68.2257, 0.0521
68.2360, 0.0660
68.2463, 0.0503
68.2566, 0.0885
68.2669, 0.0590
68.2772, 0.0660
68.2875, 0.0660
68.2978, 0.0451
68.3081, 0.0729
68.3184, 0.0538
68.3287, 0.0590
68.3390, 0.0434
68.3494, 0.0503
68.3597, 0.0677
68.3700, 0.0521
68.3803, 0.0677
68.3906, 0.0694
68.4009, 0.0608
68.4112, 0.0382
68.4215, 0.0747
68.4318, 0.0625
68.4421, 0.0503
68.4524, 0.0573
68.4627, 0.0625
68.4730, 0.0694
68.4833, 0.0642
68.4936, 0.0538
68.5039, 0.0521
68.5142, 0.0434
68.5245, 0.0573
68.5348, 0.0590
68.5451, 0.0538
68.5554, 0.0451
68.5657, 0.0729
68.5760, 0.0503
68.5863, 0.0590
68.5967, 0.0486
68.6070, 0.0660
68.6173, 0.0521
68.6276, 0.0451
68.6379, 0.0833
68.6482, 0.0521
68.6585, 0.0365
68.6688, 0.0538
68.6791, 0.0590
68.6894, 0.0642
68.6997, 0.0521
68.7100, 0.0608
68.7203, 0.0486
68.7306, 0.0556
68.7409, 0.0538
68.7512, 0.0556
68.7615, 0.0486
68.7718, 0.0747
68.7821, 0.0608
68.7924, 0.0521
68.8027, 0.0608
68.8130, 0.0573
68.8233, 0.0521
68.8336, 0.0573
68.8439, 0.0434
68.8543, 0.0608
68.8646, 0.0590
68.8749, 0.0556
68.8852, 0.0503
68.8955, 0.0573
68.9058, 0.0486
68.9161, 0.0625
68.9264, 0.0243
68.9367, 0.0486
68.9470, 0.0503
68.9573, 0.0365
68.9676, 0.0538
68.9779, 0.0469
68.9882, 0.0556
68.9985, 0.0660
69.0088, 0.0503
69.0191, 0.0503
69.0294, 0.0469
69.0397, 0.0469
69.0500, 0.0677
69.0603, 0.0503
69.0706, 0.0556
69.0809, 0.0521
69.0912, 0.0712
69.1015, 0.0590
69.1119, 0.0590
69.1222, 0.0660
69.1325, 0.0556
69.1428, 0.0538
69.1531, 0.0608
69.1634, 0.0521
69.1737, 0.0503
69.1840, 0.0590
69.1943, 0.0399
69.2046, 0.0781
69.2149, 0.0573
69.2252, 0.0434
69.2355, 0.0729
69.2458, 0.1024
69.2561, 0.0747
69.2664, 0.0729
69.2767, 0.0677
69.2870, 0.0799
69.2973, 0.0729
69.3076, 0.0764
69.3179, 0.0781
69.3282, 0.0747
69.3385, 0.0590
69.3488, 0.0729
69.3592, 0.0642
69.3695, 0.0608
69.3798, 0.0677
69.3901, 0.0781
69.4004, 0.0851
69.4107, 0.0729
69.4210, 0.0885
69.4313, 0.0608
69.4416, 0.0903
69.4519, 0.0694
69.4622, 0.0573
69.4725, 0.0764
69.4828, 0.0694
69.4931, 0.0868
69.5034, 0.0608
69.5137, 0.0747
69.5240, 0.0729
69.5343, 0.0694
69.5446, 0.0851
69.5549, 0.0712
69.5652, 0.0590
69.5755, 0.0590
69.5858, 0.0799
69.5961, 0.0521
69.6064, 0.0851
69.6168, 0.0625
69.6271, 0.0590
69.6374, 0.0399
69.6477, 0.0694
69.6580, 0.0521
69.6683, 0.0660
69.6786, 0.0712
69.6889, 0.0625
69.6992, 0.0764
69.7095, 0.0608
69.7198, 0.0469
69.7301, 0.0590
69.7404, 0.0503
69.7507, 0.0660
69.7610, 0.0694
69.7713, 0.0712
69.7816, 0.0608
69.7919, 0.0434
69.8022, 0.0313
69.8125, 0.0451
69.8228, 0.0486
69.8331, 0.0590
69.8434, 0.0556
69.8537, 0.0451
69.8640, 0.0556
69.8744, 0.0608
69.8847, 0.0538
69.8950, 0.0556
69.9053, 0.0451
69.9156, 0.0625
69.9259, 0.0573
69.9362, 0.0747
69.9465, 0.0625
69.9568, 0.0590
69.9671, 0.0608
69.9774, 0.0608
69.9877, 0.0590
69.9980, 0.0503
70.0083, 0.0573
70.0186, 0.0608
70.0289, 0.0712
70.0392, 0.0608
70.0495, 0.0694
70.0598, 0.0556
70.0701, 0.0677
70.0804, 0.0816
70.0907, 0.0521
70.1010, 0.0677
70.1113, 0.0747
70.1217, 0.0642
70.1320, 0.0556
70.1423, 0.0747
70.1526, 0.0590
70.1629, 0.0417
70.1732, 0.0642
70.1835, 0.0694
70.1938, 0.0608
70.2041, 0.0677
70.2144, 0.0608
70.2247, 0.0642
70.2350, 0.0556
70.2453, 0.0451
70.2556, 0.0764
70.2659, 0.0677
70.2762, 0.0486
70.2865, 0.0469
70.2968, 0.0434
70.3071, 0.0590
70.3174, 0.0521
70.3277, 0.0608
70.3380, 0.0677
70.3483, 0.0729
70.3586, 0.0625
70.3689, 0.0503
70.3793, 0.0503
70.3896, 0.0556
70.3999, 0.0660
70.4102, 0.0573
70.4205, 0.0573
70.4308, 0.0469
70.4411, 0.0573
70.4514, 0.0538
70.4617, 0.0747
70.4720, 0.0538
70.4823, 0.0573
70.4926, 0.0590
70.5029, 0.0538
70.5132, 0.0573
70.5235, 0.0538
70.5338, 0.0434
70.5441, 0.0469
70.5544, 0.0486
70.5647, 0.0573
70.5750, 0.0434
70.5853, 0.0556
70.5956, 0.0469
70.6059, 0.0747
70.6162, 0.0694
70.6266, 0.0486
70.6369, 0.0590
70.6472, 0.0538
70.6575, 0.0677
70.6678, 0.0642
70.6781, 0.0538
70.6884, 0.0521
70.6987, 0.0625
70.7090, 0.0469
70.7193, 0.0747
70.7296, 0.0573
70.7399, 0.0799
70.7502, 0.0573
70.7605, 0.0625
70.7708, 0.0660
70.7811, 0.0590
70.7914, 0.0503
70.8017, 0.0538
70.8120, 0.0590
70.8223, 0.0590
70.8326, 0.0677
70.8429, 0.0642
70.8532, 0.0625
70.8635, 0.0660
70.8738, 0.0521
70.8842, 0.0642
70.8945, 0.0816
70.9048, 0.0608
70.9151, 0.0729
70.9254, 0.0938
70.9357, 0.0712
70.9460, 0.0608
70.9563, 0.0764
70.9666, 0.0747
70.9769, 0.0799
70.9872, 0.0868
70.9975, 0.0764
71.0078, 0.0868
71.0181, 0.0833
71.0284, 0.0816
71.0387, 0.0816
71.0490, 0.1215
71.0593, 0.0851
71.0696, 0.0816
71.0799, 0.0799
71.0902, 0.0694
71.1005, 0.0677
71.1108, 0.0799
71.1211, 0.0920
71.1314, 0.0955
71.1418, 0.1007
71.1521, 0.1042
71.1624, 0.1094
71.1727, 0.0747
71.1830, 0.1267
71.1933, 0.1389
71.2036, 0.1146
71.2139, 0.1094
71.2242, 0.1354
71.2345, 0.1181
71.2448, 0.1042
71.2551, 0.1406
71.2654, 0.1458
71.2757, 0.1267
71.2860, 0.1545
71.2963, 0.1615
71.3066, 0.1545
71.3169, 0.1701
71.3272, 0.1580
71.3375, 0.1753
71.3478, 0.1441
71.3581, 0.1771
71.3684, 0.1632
71.3787, 0.1858
71.3891, 0.1649
71.3994, 0.1927
71.4097, 0.1563
71.4200, 0.1580
71.4303, 0.1910
71.4406, 0.1788
71.4509, 0.1563
71.4612, 0.1962
71.4715, 0.1875
71.4818, 0.1736
71.4921, 0.1927
71.5024, 0.1580
71.5127, 0.1684
71.5230, 0.1944
71.5333, 0.1684
71.5436, 0.1372
71.5539, 0.1615
71.5642, 0.1684
71.5745, 0.1372
71.5848, 0.1667
71.5951, 0.1493
71.6054, 0.1563
71.6157, 0.1684
71.6260, 0.1215
71.6363, 0.1181
71.6467, 0.1493
71.6570, 0.1372
71.6673, 0.1354
71.6776, 0.1146
71.6879, 0.1059
71.6982, 0.1302
71.7085, 0.1181
71.7188, 0.1233
71.7291, 0.0955
71.7394, 0.1007
71.7497, 0.0938
71.7600, 0.1024
71.7703, 0.1233
71.7806, 0.1059
71.7909, 0.0729
71.8012, 0.0833
71.8115, 0.0781
71.8218, 0.0972
71.8321, 0.1059
71.8424, 0.0799
71.8527, 0.0660
71.8630, 0.0903
71.8733, 0.1007
71.8836, 0.0903
71.8939, 0.0712
71.9043, 0.0920
71.9146, 0.1094
71.9249, 0.0816
71.9352, 0.0642
71.9455, 0.0625
71.9558, 0.0590
71.9661, 0.0747
71.9764, 0.0608
71.9867, 0.0816
71.9970, 0.0694
72.0073, 0.0920
72.0176, 0.0625
72.0279, 0.0851
72.0382, 0.0712
72.0485, 0.0903
72.0588, 0.0451
72.0691, 0.0642
72.0794, 0.0764
72.0897, 0.0729
72.1000, 0.0712
72.1103, 0.0677
72.1206, 0.0556
72.1309, 0.0694
72.1412, 0.0781
72.1516, 0.0712
72.1619, 0.0521
72.1722, 0.0642
72.1825, 0.0764
72.1928, 0.0729
72.2031, 0.0642
72.2134, 0.0469
72.2237, 0.0660
72.2340, 0.0781
72.2443, 0.0729
72.2546, 0.0556
72.2649, 0.0608
72.2752, 0.0677
72.2855, 0.0660
72.2958, 0.0747
72.3061, 0.0781
72.3164, 0.0660
72.3267, 0.0660
72.3370, 0.0799
72.3473, 0.0903
72.3576, 0.0990
72.3679, 0.0833
72.3782, 0.0556
72.3885, 0.1111
72.3988, 0.0694
72.4092, 0.0764
72.4195, 0.0920
72.4298, 0.1076
72.4401, 0.0573
72.4504, 0.0625
72.4607, 0.0764
72.4710, 0.0816
72.4813, 0.1007
72.4916, 0.0868
72.5019, 0.0799
72.5122, 0.0781
72.5225, 0.0833
72.5328, 0.1007
72.5431, 0.0694
72.5534, 0.0642
72.5637, 0.0642
72.5740, 0.0851
72.5843, 0.0799
72.5946, 0.0590
72.6049, 0.0694
72.6152, 0.0799
72.6255, 0.0816
72.6358, 0.0590
72.6461, 0.0885
72.6564, 0.0747
72.6668, 0.0764
72.6771, 0.0799
72.6874, 0.0799
72.6977, 0.0747
72.7080, 0.0573
72.7183, 0.0747
72.7286, 0.0660
72.7389, 0.0556
72.7492, 0.0590
72.7595, 0.0486
72.7698, 0.0521
72.7801, 0.0608
72.7904, 0.0903
72.8007, 0.0833
72.8110, 0.0590
72.8213, 0.0538
72.8316, 0.0729
72.8419, 0.0538
72.8522, 0.0660
72.8625, 0.0556
72.8728, 0.0538
72.8831, 0.0417
72.8934, 0.0660
72.9037, 0.0608
72.9141, 0.0660
72.9244, 0.0590
72.9347, 0.0677
72.9450, 0.0764
72.9553, 0.0851
72.9656, 0.0625
72.9759, 0.0399
72.9862, 0.0590
72.9965, 0.0521
73.0068, 0.0660
73.0171, 0.0573
73.0274, 0.0486
73.0377, 0.0590
73.0480, 0.0451
73.0583, 0.0556
73.0686, 0.0556
73.0789, 0.0503
73.0892, 0.0503
73.0995, 0.0625
73.1098, 0.0625
73.1201, 0.0556
73.1304, 0.0503
73.1407, 0.0642
73.1510, 0.0503
73.1613, 0.0521
73.1717, 0.0642
73.1820, 0.0590
73.1923, 0.0573
73.2026, 0.0885
73.2129, 0.0573
73.2232, 0.0694
73.2335, 0.0660
73.2438, 0.0556
73.2541, 0.0677
73.2644, 0.0556
73.2747, 0.0590
73.2850, 0.0538
73.2953, 0.0729
73.3056, 0.0764
73.3159, 0.0694
73.3262, 0.0625
73.3365, 0.0694
73.3468, 0.0677
73.3571, 0.0764
73.3674, 0.0660
73.3777, 0.0608
73.3880, 0.0486
73.3983, 0.0694
73.4086, 0.0503
73.4189, 0.0521
73.4293, 0.0469
73.4396, 0.0660
73.4499, 0.0590
73.4602, 0.0885
73.4705, 0.0573
73.4808, 0.0556
73.4911, 0.0625
73.5014, 0.0799
73.5117, 0.0851
73.5220, 0.0573
73.5323, 0.0642
73.5426, 0.0434
73.5529, 0.0521
73.5632, 0.0486
73.5735, 0.0573
73.5838, 0.0556
73.5941, 0.0486
73.6044, 0.0660
73.6147, 0.0868
73.6250, 0.0521
73.6353, 0.0417
73.6456, 0.0642
73.6559, 0.0608
73.6662, 0.0451
73.6766, 0.0434
73.6869, 0.0799
73.6972, 0.0642
73.7075, 0.0642
73.7178, 0.0608
73.7281, 0.0677
73.7384, 0.0573
73.7487, 0.0694
73.7590, 0.0677
73.7693, 0.0503
73.7796, 0.0816
73.7899, 0.0590
73.8002, 0.0625
73.8105, 0.0677
73.8208, 0.0642
73.8311, 0.0781
73.8414, 0.0903
73.8517, 0.0799
73.8620, 0.0521
73.8723, 0.0486
73.8826, 0.0660
73.8929, 0.0712
73.9032, 0.0799
73.9135, 0.0868
73.9238, 0.0712
73.9342, 0.0625
73.9445, 0.0816
73.9548, 0.0660
73.9651, 0.1076
73.9754, 0.0972
73.9857, 0.0903
73.9960, 0.0816
74.0063, 0.1111
74.0166, 0.1007
74.0269, 0.0885
74.0372, 0.0938
74.0475, 0.1146
74.0578, 0.0851
74.0681, 0.0990
74.0784, 0.0747
74.0887, 0.0972
74.0990, 0.1198
74.1093, 0.0972
74.1196, 0.1007
74.1299, 0.1354
74.1402, 0.1111
74.1505, 0.1302
74.1608, 0.1198
74.1711, 0.1233
74.1815, 0.1302
74.1918, 0.1354
74.2021, 0.1528
74.2124, 0.1337
74.2227, 0.1563
74.2330, 0.1649
74.2433, 0.1424
74.2536, 0.1319
74.2639, 0.1753
74.2742, 0.1615
74.2845, 0.1910
74.2948, 0.1719
74.3051, 0.1753
74.3154, 0.1910
74.3257, 0.1997
74.3360, 0.1771
74.3463, 0.1840
74.3566, 0.2274
74.3669, 0.2622
74.3772, 0.2413
74.3875, 0.2569
74.3978, 0.2431
74.4081, 0.2552
74.4184, 0.2830
74.4287, 0.2622
74.4391, 0.3281
74.4494, 0.3038
74.4597, 0.2743
74.4700, 0.3125
74.4803, 0.3438
74.4906, 0.3576
74.5009, 0.3194
74.5112, 0.2934
74.5215, 0.3003
74.5318, 0.3177
74.5421, 0.2726
74.5524, 0.2726
74.5627, 0.2865
74.5730, 0.2917
74.5833, 0.2656
74.5936, 0.2378
74.6039, 0.2743
74.6142, 0.2396
74.6245, 0.2708
74.6348, 0.2413
74.6451, 0.2726
74.6554, 0.2691
74.6657, 0.2465
74.6760, 0.2153
74.6863, 0.2795
74.6967, 0.1962
74.7070, 0.2326
74.7173, 0.2361
74.7276, 0.1875
74.7379, 0.2014
74.7482, 0.2188
74.7585, 0.1962
74.7688, 0.1528
74.7791, 0.1997
74.7894, 0.1649
74.7997, 0.1476
74.8100, 0.1788
74.8203, 0.1580
74.8306, 0.1632
74.8409, 0.1302
74.8512, 0.1285
74.8615, 0.1337
74.8718, 0.1285
74.8821, 0.1302
74.8924, 0.1128
74.9027, 0.1337
74.9130, 0.1267
74.9233, 0.1302
74.9336, 0.1285
74.9440, 0.0851
74.9543, 0.0972
74.9646, 0.1215
74.9749, 0.1076
74.9852, 0.0816
74.9955, 0.1146
75.0058, 0.0833
75.0161, 0.0903
75.0264, 0.1042
75.0367, 0.1094
75.0470, 0.0799
75.0573, 0.0920
75.0676, 0.1215
75.0779, 0.0938
75.0882, 0.1042
75.0985, 0.0920
75.1088, 0.0833
75.1191, 0.0955
75.1294, 0.0903
75.1397, 0.0833
75.1500, 0.0868
75.1603, 0.0764
75.1706, 0.0833
75.1809, 0.0747
75.1912, 0.0920
75.2016, 0.0938
75.2119, 0.0885
75.2222, 0.0833
75.2325, 0.0903
75.2428, 0.0868
75.2531, 0.1007
75.2634, 0.0885
75.2737, 0.0816
75.2840, 0.0955
75.2943, 0.0799
75.3046, 0.0816
75.3149, 0.1163
75.3252, 0.0747
75.3355, 0.0920
75.3458, 0.0920
75.3561, 0.0799
75.3664, 0.1024
75.3767, 0.1094
75.3870, 0.1285
75.3973, 0.1250
75.4076, 0.1250
75.4179, 0.1007
75.4282, 0.1163
75.4385, 0.1059
75.4488, 0.1111
75.4592, 0.1267
75.4695, 0.1389
75.4798, 0.1354
75.4901, 0.0972
75.5004, 0.1215
75.5107, 0.0990
75.5210, 0.1181
75.5313, 0.1493
75.5416, 0.1163
75.5519, 0.1146
75.5622, 0.1354
75.5725, 0.1128
75.5828, 0.1111
75.5931, 0.1146
75.6034, 0.1042
75.6137, 0.1181
75.6240, 0.0938
75.6343, 0.0920
75.6446, 0.1198
75.6549, 0.1111
75.6652, 0.1215
75.6755, 0.1094
75.6858, 0.1076
75.6961, 0.1007
75.7065, 0.0851
75.7168, 0.1076
75.7271, 0.0833
75.7374, 0.0799
75.7477, 0.0972
75.7580, 0.0972
75.7683, 0.1007
75.7786, 0.1007
75.7889, 0.0938
75.7992, 0.0799
75.8095, 0.0694
75.8198, 0.0851
75.8301, 0.0816
75.8404, 0.1007
75.8507, 0.0833
75.8610, 0.0868
75.8713, 0.0729
75.8816, 0.0625
75.8919, 0.0694
75.9022, 0.0503
75.9125, 0.0712
75.9228, 0.0642
75.9331, 0.0694
75.9434, 0.0642
75.9537, 0.0764
75.9641, 0.0729
75.9744, 0.0642
75.9847, 0.0556
75.9950, 0.0590
76.0053, 0.0521
76.0156, 0.0434
76.0259, 0.0712
76.0362, 0.0503
76.0465, 0.0590
76.0568, 0.0712
76.0671, 0.0538
76.0774, 0.0503
76.0877, 0.0660
76.0980, 0.0521
76.1083, 0.0486
76.1186, 0.0399
76.1289, 0.0660
76.1392, 0.0469
76.1495, 0.0694
76.1598, 0.0538
76.1701, 0.0538
76.1804, 0.0590
76.1907, 0.0503
76.2010, 0.0712
76.2113, 0.0486
76.2217, 0.0590
76.2320, 0.0451
76.2423, 0.0590
76.2526, 0.0538
76.2629, 0.0538
76.2732, 0.0556
76.2835, 0.0573
76.2938, 0.0660
76.3041, 0.0521
76.3144, 0.0556
76.3247, 0.0521
76.3350, 0.0538
76.3453, 0.0538
76.3556, 0.0573
76.3659, 0.0486
76.3762, 0.0694
76.3865, 0.0590
76.3968, 0.0608
76.4071, 0.0694
76.4174, 0.0625
76.4277, 0.0417
76.4380, 0.0642
76.4483, 0.0625
76.4586, 0.0660
76.4690, 0.0538
76.4793, 0.0660
76.4896, 0.0590
76.4999, 0.0764
76.5102, 0.0486
76.5205, 0.0521
76.5308, 0.0625
76.5411, 0.0538
76.5514, 0.0712
76.5617, 0.0573
76.5720, 0.0486
76.5823, 0.0677
76.5926, 0.0712
76.6029, 0.0434
76.6132, 0.0451
76.6235, 0.0694
76.6338, 0.0434
76.6441, 0.0434
76.6544, 0.0677
76.6647, 0.0382
76.6750, 0.0521
76.6853, 0.0642
76.6956, 0.0521
76.7059, 0.0417
76.7162, 0.0382
76.7266, 0.0469
76.7369, 0.0469
76.7472, 0.0660
76.7575, 0.0573
76.7678, 0.0694
76.7781, 0.0590
76.7884, 0.0486
76.7987, 0.0556
76.8090, 0.0521
76.8193, 0.0729
76.8296, 0.0469
76.8399, 0.0694
76.8502, 0.0521
76.8605, 0.0625
76.8708, 0.0347
76.8811, 0.0556
76.8914, 0.0573
76.9017, 0.0625
76.9120, 0.0573
76.9223, 0.0434
76.9326, 0.0503
76.9429, 0.0399
76.9532, 0.0434
76.9635, 0.0434
76.9739, 0.0538
76.9842, 0.0434
76.9945, 0.0347
77.0048, 0.0451
77.0151, 0.0365
77.0254, 0.0608
77.0357, 0.0556
77.0460, 0.0608
77.0563, 0.0434
77.0666, 0.0521
77.0769, 0.0573
77.0872, 0.0486
77.0975, 0.0347
77.1078, 0.0538
77.1181, 0.0694
77.1284, 0.0590
77.1387, 0.0451
77.1490, 0.0399
77.1593, 0.0451
77.1696, 0.0330
77.1799, 0.0538
77.1902, 0.0399
77.2005, 0.0365
77.2108, 0.0382
77.2211, 0.0625
77.2315, 0.0417
77.2418, 0.0417
77.2521, 0.0382
77.2624, 0.0365
77.2727, 0.0382
77.2830, 0.0538
77.2933, 0.0469
77.3036, 0.0521
77.3139, 0.0451
77.3242, 0.0382
77.3345, 0.0399
77.3448, 0.0347
77.3551, 0.0521
77.3654, 0.0469
77.3757, 0.0330
77.3860, 0.0347
77.3963, 0.0503
77.4066, 0.0243
77.4169, 0.0365
77.4272, 0.0417
77.4375, 0.0347
77.4478, 0.0347
77.4581, 0.0434
77.4684, 0.0417
77.4787, 0.0451
77.4891, 0.0365
77.4994, 0.0642
77.5097, 0.0521
77.5200, 0.0399
77.5303, 0.0590
77.5406, 0.0313
77.5509, 0.0486
77.5612, 0.0399
77.5715, 0.0538
77.5818, 0.0538
77.5921, 0.0243
77.6024, 0.0434
77.6127, 0.0434
77.6230, 0.0469
77.6333, 0.0295
77.6436, 0.0330
77.6539, 0.0313
77.6642, 0.0660
77.6745, 0.0434
77.6848, 0.0573
77.6951, 0.0295
77.7054, 0.0503
77.7157, 0.0469
77.7260, 0.0451
77.7364, 0.0434
77.7467, 0.0503
77.7570, 0.0399
77.7673, 0.0538
77.7776, 0.0243
77.7879, 0.0451
77.7982, 0.0434
77.8085, 0.0399
77.8188, 0.0434
77.8291, 0.0451
77.8394, 0.0295
77.8497, 0.0556
77.8600, 0.0382
77.8703, 0.0521
77.8806, 0.0503
77.8909, 0.0451
77.9012, 0.0434
77.9115, 0.0503
77.9218, 0.0399
77.9321, 0.0417
77.9424, 0.0295
77.9527, 0.0313
77.9630, 0.0382
77.9733, 0.0313
77.9836, 0.0469
77.9940, 0.0469
78.0043, 0.0347
78.0146, 0.0399
78.0249, 0.0365
78.0352, 0.0365
78.0455, 0.0486
78.0558, 0.0590
78.0661, 0.0417
78.0764, 0.0469
78.0867, 0.0330
78.0970, 0.0295
78.1073, 0.0313
78.1176, 0.0399
78.1279, 0.0330
78.1382, 0.0642
78.1485, 0.0486
78.1588, 0.0365
78.1691, 0.0590
78.1794, 0.0538
78.1897, 0.0451
78.2000, 0.0330
78.2103, 0.0347
78.2206, 0.0417
78.2309, 0.0382
78.2412, 0.0417
78.2516, 0.0503
78.2619, 0.0417
78.2722, 0.0434
78.2825, 0.0503
78.2928, 0.0347
78.3031, 0.0590
78.3134, 0.0226
78.3237, 0.0330
78.3340, 0.0469
78.3443, 0.0417
78.3546, 0.0451
78.3649, 0.0295
78.3752, 0.0677
78.3855, 0.0208
78.3958, 0.0399
78.4061, 0.0399
78.4164, 0.0347
78.4267, 0.0729
78.4370, 0.0330
78.4473, 0.0417
78.4576, 0.0399
78.4679, 0.0521
78.4782, 0.0486
78.4885, 0.0347
78.4989, 0.0347
78.5092, 0.0486
78.5195, 0.0521
78.5298, 0.0399
78.5401, 0.0382
78.5504, 0.0486
78.5607, 0.0330
78.5710, 0.0382
78.5813, 0.0486
78.5916, 0.0313
78.6019, 0.0399
78.6122, 0.0538
78.6225, 0.0382
78.6328, 0.0295
78.6431, 0.0313
78.6534, 0.0295
78.6637, 0.0295
78.6740, 0.0451
78.6843, 0.0399
78.6946, 0.0469
78.7049, 0.0451
78.7152, 0.0382
78.7255, 0.0313
78.7358, 0.0399
78.7461, 0.0278
78.7565, 0.0417
78.7668, 0.0399
78.7771, 0.0382
78.7874, 0.0469
78.7977, 0.0330
78.8080, 0.0417
78.8183, 0.0417
78.8286, 0.0365
78.8389, 0.0295
78.8492, 0.0295
78.8595, 0.0365
78.8698, 0.0382
78.8801, 0.0451
78.8904, 0.0486
78.9007, 0.0382
78.9110, 0.0399
78.9213, 0.0556
78.9316, 0.0469
78.9419, 0.0469
78.9522, 0.0278
78.9625, 0.0556
78.9728, 0.0434
78.9831, 0.0556
78.9934, 0.0434
79.0037, 0.0365
79.0141, 0.0590
79.0244, 0.0399
79.0347, 0.0521
79.0450, 0.0417
79.0553, 0.0434
79.0656, 0.0503
79.0759, 0.0451
79.0862, 0.0365
79.0965, 0.0503
79.1068, 0.0382
79.1171, 0.0538
79.1274, 0.0382
79.1377, 0.0503
79.1480, 0.0503
79.1583, 0.0365
79.1686, 0.0521
79.1789, 0.0347
79.1892, 0.0538
79.1995, 0.0538
79.2098, 0.0556
79.2201, 0.0503
79.2304, 0.0625
79.2407, 0.0781
79.2510, 0.0417
79.2614, 0.0451
79.2717, 0.0712
79.2820, 0.0434
79.2923, 0.0590
79.3026, 0.0573
79.3129, 0.0833
79.3232, 0.0608
79.3335, 0.0799
79.3438, 0.0590
79.3541, 0.0660
79.3644, 0.0556
79.3747, 0.0816
79.3850, 0.0694
79.3953, 0.0764
79.4056, 0.1146
79.4159, 0.0972
79.4262, 0.0920
79.4365, 0.0694
79.4468, 0.1007
79.4571, 0.1094
79.4674, 0.1128
79.4777, 0.1111
79.4880, 0.0833
79.4983, 0.0903
79.5086, 0.0868
79.5190, 0.0955
79.5293, 0.1198
79.5396, 0.0972
79.5499, 0.0955
79.5602, 0.0851
79.5705, 0.0764
79.5808, 0.0694
79.5911, 0.0990
79.6014, 0.0955
79.6117, 0.0920
79.6220, 0.0833
79.6323, 0.0851
79.6426, 0.1059
79.6529, 0.0833
79.6632, 0.0990
79.6735, 0.0972
79.6838, 0.0747
79.6941, 0.0677
79.7044, 0.0885
79.7147, 0.0642
79.7250, 0.0955
79.7353, 0.0816
79.7456, 0.0868
79.7559, 0.0799
79.7663, 0.0694
79.7766, 0.0799
79.7869, 0.0781
79.7972, 0.0660
79.8075, 0.0573
79.8178, 0.0590
79.8281, 0.0729
79.8384, 0.0573
79.8487, 0.0486
79.8590, 0.0712
79.8693, 0.0747
79.8796, 0.0747
79.8899, 0.0538
79.9002, 0.0694
79.9105, 0.0677
79.9208, 0.0347
79.9311, 0.0434
79.9414, 0.0590
79.9517, 0.0590
79.9620, 0.0469
79.9723, 0.0417
79.9826, 0.0677
79.9929, 0.0590
80.0032, 0.0434
80.0135, 0.0556
80.0239, 0.0434
80.0342, 0.0521
80.0445, 0.0347
80.0548, 0.0556
80.0651, 0.0434
80.0754, 0.0451
80.0857, 0.0521
80.0960, 0.0260
80.1063, 0.0417
80.1166, 0.0399
80.1269, 0.0556
80.1372, 0.0365
80.1475, 0.0503
80.1578, 0.0382
80.1681, 0.0556
80.1784, 0.0417
80.1887, 0.0347
80.1990, 0.0469
80.2093, 0.0382
80.2196, 0.0538
80.2299, 0.0573
80.2402, 0.0365
80.2505, 0.0365
80.2608, 0.0503
80.2711, 0.0486
80.2815, 0.0365
80.2918, 0.0313
80.3021, 0.0503
80.3124, 0.0382
80.3227, 0.0486
80.3330, 0.0573
80.3433, 0.0417
80.3536, 0.0538
80.3639, 0.0538
80.3742, 0.0382
80.3845, 0.0538
80.3948, 0.0451
80.4051, 0.0573
80.4154, 0.0486
80.4257, 0.0434
80.4360, 0.0660
80.4463, 0.0625
80.4566, 0.0521
80.4669, 0.0365
80.4772, 0.0451
80.4875, 0.0573
80.4978, 0.0503
80.5081, 0.0538
80.5184, 0.0503
80.5288, 0.0590
80.5391, 0.0642
80.5494, 0.0521
80.5597, 0.0625
80.5700, 0.0451
80.5803, 0.0642
80.5906, 0.0434
80.6009, 0.0365
80.6112, 0.0538
80.6215, 0.0486
80.6318, 0.0573
80.6421, 0.0642
80.6524, 0.0503
80.6627, 0.0573
80.6730, 0.0278
80.6833, 0.0521
80.6936, 0.0625
80.7039, 0.0434
80.7142, 0.0365
80.7245, 0.0365
80.7348, 0.0486
80.7451, 0.0677
80.7554, 0.0590
80.7657, 0.0608
80.7760, 0.0399
80.7864, 0.0295
80.7967, 0.0538
80.8070, 0.0521
80.8173, 0.0451
80.8276, 0.0521
80.8379, 0.0434
80.8482, 0.0347
80.8585, 0.0486
80.8688, 0.0556
80.8791, 0.0590
80.8894, 0.0538
80.8997, 0.0521
80.9100, 0.0295
80.9203, 0.0538
80.9306, 0.0486
80.9409, 0.0365
80.9512, 0.0486
80.9615, 0.0434
80.9718, 0.0295
80.9821, 0.0278
80.9924, 0.0278
81.0027, 0.0278
81.0130, 0.0434
81.0233, 0.0417
81.0336, 0.0278
81.0440, 0.0330
81.0543, 0.0382
81.0646, 0.0399
81.0749, 0.0330
81.0852, 0.0330
81.0955, 0.0399
81.1058, 0.0382
81.1161, 0.0295
81.1264, 0.0382
81.1367, 0.0278
81.1470, 0.0347
81.1573, 0.0139
81.1676, 0.0347
81.1779, 0.0382
81.1882, 0.0382
81.1985, 0.0434
81.2088, 0.0243
81.2191, 0.0417
81.2294, 0.0469
81.2397, 0.0382
81.2500, 0.0399
81.2603, 0.0313
81.2706, 0.0399
81.2809, 0.0503
81.2913, 0.0347
81.3016, 0.0382
81.3119, 0.0434
81.3222, 0.0313
81.3325, 0.0399
81.3428, 0.0260
81.3531, 0.0590
81.3634, 0.0382
81.3737, 0.0503
81.3840, 0.0347
81.3943, 0.0469
81.4046, 0.0313
81.4149, 0.0434
81.4252, 0.0313
81.4355, 0.0382
81.4458, 0.0382
81.4561, 0.0330
81.4664, 0.0503
81.4767, 0.0417
81.4870, 0.0434
81.4973, 0.0399
81.5076, 0.0313
81.5179, 0.0347
81.5282, 0.0486
81.5385, 0.0417
81.5489, 0.0226
81.5592, 0.0399
81.5695, 0.0330
81.5798, 0.0399
81.5901, 0.0260
81.6004, 0.0365
81.6107, 0.0538
81.6210, 0.0451
81.6313, 0.0295
81.6416, 0.0399
81.6519, 0.0417
81.6622, 0.0295
81.6725, 0.0347
81.6828, 0.0573
81.6931, 0.0330
81.7034, 0.0451
81.7137, 0.0434
81.7240, 0.0503
81.7343, 0.0399
81.7446, 0.0434
81.7549, 0.0191
81.7652, 0.0486
81.7755, 0.0451
81.7858, 0.0521
81.7961, 0.0313
81.8065, 0.0330
81.8168, 0.0399
81.8271, 0.0313
81.8374, 0.0417
81.8477, 0.0503
81.8580, 0.0382
81.8683, 0.0434
81.8786, 0.0417
81.8889, 0.0295
81.8992, 0.0556
81.9095, 0.0451
81.9198, 0.0382
81.9301, 0.0260
81.9404, 0.0451
81.9507, 0.0347
81.9610, 0.0521
81.9713, 0.0330
81.9816, 0.0469
81.9919, 0.0503
82.0022, 0.0417
82.0125, 0.0330
82.0228, 0.0382
82.0331, 0.0382
82.0434, 0.0313
82.0538, 0.0399
82.0641, 0.0486
82.0744, 0.0191
82.0847, 0.0347
82.0950, 0.0313
82.1053, 0.0226
82.1156, 0.0521
82.1259, 0.0330
82.1362, 0.0556
82.1465, 0.0399
82.1568, 0.0382
82.1671, 0.0417
82.1774, 0.0278
82.1877, 0.0434
82.1980, 0.0365
82.2083, 0.0278
82.2186, 0.0417
82.2289, 0.0278
82.2392, 0.0556
82.2495, 0.0347
82.2598, 0.0365
82.2701, 0.0486
82.2804, 0.0417
82.2907, 0.0365
82.3010, 0.0365
82.3114, 0.0434
82.3217, 0.0330
82.3320, 0.0434
82.3423, 0.0399
82.3526, 0.0347
82.3629, 0.0469
82.3732, 0.0278
82.3835, 0.0417
82.3938, 0.0469
82.4041, 0.0295
82.4144, 0.0278
82.4247, 0.0469
82.4350, 0.0382
82.4453, 0.0399
82.4556, 0.0451
82.4659, 0.0417
82.4762, 0.0486
82.4865, 0.0434
82.4968, 0.0313
82.5071, 0.0365
82.5174, 0.0313
82.5277, 0.0451
82.5380, 0.0469
82.5483, 0.0451
82.5587, 0.0469
82.5690, 0.0260
82.5793, 0.0330
82.5896, 0.0295
82.5999, 0.0382
82.6102, 0.0538
82.6205, 0.0347
82.6308, 0.0278
82.6411, 0.0503
82.6514, 0.0382
82.6617, 0.0295
82.6720, 0.0365
82.6823, 0.0451
82.6926, 0.0295
82.7029, 0.0434
82.7132, 0.0347
82.7235, 0.0243
82.7338, 0.0208
82.7441, 0.0365
82.7544, 0.0365
82.7647, 0.0295
82.7750, 0.0399
82.7853, 0.0347
82.7956, 0.0156
82.8059, 0.0399
82.8163, 0.0295
82.8266, 0.0365
82.8369, 0.0382
82.8472, 0.0347
82.8575, 0.0208
82.8678, 0.0365
82.8781, 0.0434
82.8884, 0.0434
82.8987, 0.0295
82.9090, 0.0347
82.9193, 0.0486
82.9296, 0.0347
82.9399, 0.0399
82.9502, 0.0365
82.9605, 0.0365
82.9708, 0.0243
82.9811, 0.0365
82.9914, 0.0243
83.0017, 0.0399
83.0120, 0.0260
83.0223, 0.0295
83.0326, 0.0365
83.0429, 0.0313
83.0532, 0.0295
83.0635, 0.0417
83.0739, 0.0330
83.0842, 0.0382
83.0945, 0.0260
83.1048, 0.0260
83.1151, 0.0295
83.1254, 0.0330
83.1357, 0.0382
83.1460, 0.0434
83.1563, 0.0469
83.1666, 0.0295
83.1769, 0.0347
83.1872, 0.0399
83.1975, 0.0417
83.2078, 0.0365
83.2181, 0.0469
83.2284, 0.0295
83.2387, 0.0313
83.2490, 0.0399
83.2593, 0.0330
83.2696, 0.0434
83.2799, 0.0417
83.2902, 0.0330
83.3005, 0.0503
83.3108, 0.0521
83.3212, 0.0313
83.3315, 0.0365
83.3418, 0.0538
83.3521, 0.0330
83.3624, 0.0260
83.3727, 0.0417
83.3830, 0.0503
83.3933, 0.0365
83.4036, 0.0469
83.4139, 0.0451
83.4242, 0.0330
83.4345, 0.0278
83.4448, 0.0295
83.4551, 0.0382
83.4654, 0.0313
83.4757, 0.0365
83.4860, 0.0347
83.4963, 0.0347
83.5066, 0.0365
83.5169, 0.0313
83.5272, 0.0278
83.5375, 0.0243
83.5478, 0.0278
83.5581, 0.0417
83.5684, 0.0278
83.5788, 0.0313
83.5891, 0.0347
83.5994, 0.0382
83.6097, 0.0260
83.6200, 0.0174
83.6303, 0.0469
83.6406, 0.0295
83.6509, 0.0295
83.6612, 0.0399
83.6715, 0.0347
83.6818, 0.0417
83.6921, 0.0365
83.7024, 0.0330
83.7127, 0.0399
83.7230, 0.0295
83.7333, 0.0260
83.7436, 0.0278
83.7539, 0.0347
83.7642, 0.0295
83.7745, 0.0260
83.7848, 0.0313
83.7951, 0.0451
83.8054, 0.0243
83.8157, 0.0365
83.8260, 0.0486
83.8364, 0.0365
83.8467, 0.0434
83.8570, 0.0365
83.8673, 0.0295
83.8776, 0.0330
83.8879, 0.0521
83.8982, 0.0451
83.9085, 0.0295
83.9188, 0.0330
83.9291, 0.0208
83.9394, 0.0382
83.9497, 0.0399
83.9600, 0.0330
83.9703, 0.0486
83.9806, 0.0278
83.9909, 0.0243
84.0012, 0.0451
84.0115, 0.0330
84.0218, 0.0347
84.0321, 0.0174
84.0424, 0.0295
84.0527, 0.0347
84.0630, 0.0365
84.0733, 0.0382
84.0837, 0.0226
84.0940, 0.0417
84.1043, 0.0295
84.1146, 0.0330
84.1249, 0.0243
84.1352, 0.0330
84.1455, 0.0278
84.1558, 0.0226
84.1661, 0.0451
84.1764, 0.0295
84.1867, 0.0313
84.1970, 0.0226
84.2073, 0.0278
84.2176, 0.0243
84.2279, 0.0295
84.2382, 0.0278
84.2485, 0.0260
84.2588, 0.0295
84.2691, 0.0226
84.2794, 0.0417
84.2897, 0.0226
84.3000, 0.0434
84.3103, 0.0243
84.3206, 0.0347
84.3309, 0.0521
84.3413, 0.0469
84.3516, 0.0278
84.3619, 0.0313
84.3722, 0.0226
84.3825, 0.0243
84.3928, 0.0503
84.4031, 0.0347
84.4134, 0.0365
84.4237, 0.0330
84.4340, 0.0313
84.4443, 0.0451
84.4546, 0.0399
84.4649, 0.0434
84.4752, 0.0538
84.4855, 0.0417
84.4958, 0.0417
84.5061, 0.0434
84.5164, 0.0399
84.5267, 0.0434
84.5370, 0.0330
84.5473, 0.0278
84.5576, 0.0434
84.5679, 0.0469
84.5782, 0.0469
84.5885, 0.0295
84.5989, 0.0451
84.6092, 0.0365
84.6195, 0.0347
84.6298, 0.0347
84.6401, 0.0313
84.6504, 0.0486
84.6607, 0.0417
84.6710, 0.0347
84.6813, 0.0451
84.6916, 0.0278
84.7019, 0.0434
84.7122, 0.0417
84.7225, 0.0521
84.7328, 0.0399
84.7431, 0.0417
84.7534, 0.0451
84.7637, 0.0469
84.7740, 0.0347
84.7843, 0.0417
84.7946, 0.0417
84.8049, 0.0434
84.8152, 0.0313
84.8255, 0.0451
84.8358, 0.0538
84.8462, 0.0399
84.8565, 0.0313
84.8668, 0.0521
84.8771, 0.0330
84.8874, 0.0521
84.8977, 0.0347
84.9080, 0.0434
84.9183, 0.0382
84.9286, 0.0399
84.9389, 0.0278
84.9492, 0.0382
84.9595, 0.0313
84.9698, 0.0347
84.9801, 0.0417
84.9904, 0.0330
85.0007, 0.0451
85.0110, 0.0434
85.0213, 0.0382
85.0316, 0.0469
85.0419, 0.0399
85.0522, 0.0451
85.0625, 0.0330
85.0728, 0.0556
85.0831, 0.0347
85.0934, 0.0469
85.1038, 0.0486
85.1141, 0.0451
85.1244, 0.0608
85.1347, 0.0469
85.1450, 0.0399
85.1553, 0.0347
85.1656, 0.0503
85.1759, 0.0399
85.1862, 0.0451
85.1965, 0.0469
85.2068, 0.0556
85.2171, 0.0486
85.2274, 0.0417
85.2377, 0.0365
85.2480, 0.0434
85.2583, 0.0503
85.2686, 0.0503
85.2789, 0.0538
85.2892, 0.0399
85.2995, 0.0538
85.3098, 0.0538
85.3201, 0.0434
85.3304, 0.0434
85.3407, 0.0278
85.3510, 0.0521
85.3614, 0.0660
85.3717, 0.0417
85.3820, 0.0365
85.3923, 0.0486
85.4026, 0.0538
85.4129, 0.0590
85.4232, 0.0660
85.4335, 0.0538
85.4438, 0.0451
85.4541, 0.0330
85.4644, 0.0608
85.4747, 0.0521
85.4850, 0.0642
85.4953, 0.0503
85.5056, 0.0469
85.5159, 0.0399
85.5262, 0.0503
85.5365, 0.0399
85.5468, 0.0729
85.5571, 0.0642
85.5674, 0.0538
85.5777, 0.0469
85.5880, 0.0469
85.5983, 0.0451
85.6087, 0.0625
85.6190, 0.0451
85.6293, 0.0469
85.6396, 0.0608
85.6499, 0.0503
85.6602, 0.0486
85.6705, 0.0521
85.6808, 0.0538
85.6911, 0.0278
85.7014, 0.0399
85.7117, 0.0417
85.7220, 0.0399
85.7323, 0.0590
85.7426, 0.0538
85.7529, 0.0486
85.7632, 0.0573
85.7735, 0.0399
85.7838, 0.0365
85.7941, 0.0295
85.8044, 0.0556
85.8147, 0.0486
85.8250, 0.0573
85.8353, 0.0365
85.8456, 0.0365
85.8559, 0.0382
85.8663, 0.0417
85.8766, 0.0417
85.8869, 0.0469
85.8972, 0.0330
85.9075, 0.0399
85.9178, 0.0382
85.9281, 0.0399
85.9384, 0.0313
85.9487, 0.0417
85.9590, 0.0313
85.9693, 0.0521
85.9796, 0.0365
85.9899, 0.0417
86.0002, 0.0399
86.0105, 0.0417
86.0208, 0.0538
86.0311, 0.0382
86.0414, 0.0365
86.0517, 0.0486
86.0620, 0.0347
86.0723, 0.0434
86.0826, 0.0521
86.0929, 0.0226
86.1032, 0.0399
86.1136, 0.0399
86.1239, 0.0486
86.1342, 0.0417
86.1445, 0.0521
86.1548, 0.0538
86.1651, 0.0434
86.1754, 0.0399
86.1857, 0.0486
86.1960, 0.0434
86.2063, 0.0486
86.2166, 0.0556
86.2269, 0.0538
86.2372, 0.0417
86.2475, 0.0556
86.2578, 0.0399
86.2681, 0.0295
86.2784, 0.0573
86.2887, 0.0365
86.2990, 0.0313
86.3093, 0.0382
86.3196, 0.0365
86.3299, 0.0417
86.3402, 0.0382
86.3505, 0.0434
86.3608, 0.0382
86.3712, 0.0382
86.3815, 0.0365
86.3918, 0.0417
86.4021, 0.0382
86.4124, 0.0260
86.4227, 0.0434
86.4330, 0.0313
86.4433, 0.0486
86.4536, 0.0469
86.4639, 0.0399
86.4742, 0.0417
86.4845, 0.0590
86.4948, 0.0469
86.5051, 0.0382
86.5154, 0.0330
86.5257, 0.0417
86.5360, 0.0451
86.5463, 0.0434
86.5566, 0.0330
86.5669, 0.0556
86.5772, 0.0503
86.5875, 0.0382
86.5978, 0.0573
86.6081, 0.0469
86.6184, 0.0295
86.6288, 0.0486
86.6391, 0.0330
86.6494, 0.0590
86.6597, 0.0347
86.6700, 0.0417
86.6803, 0.0573
86.6906, 0.0451
86.7009, 0.0538
86.7112, 0.0625
86.7215, 0.0590
86.7318, 0.0434
86.7421, 0.0347
86.7524, 0.0399
86.7627, 0.0417
86.7730, 0.0486
86.7833, 0.0434
86.7936, 0.0469
86.8039, 0.0486
86.8142, 0.0469
86.8245, 0.0573
86.8348, 0.0469
86.8451, 0.0451
86.8554, 0.0538
86.8657, 0.0469
86.8761, 0.0747
86.8864, 0.0503
86.8967, 0.0538
86.9070, 0.0451
86.9173, 0.0417
86.9276, 0.0642
86.9379, 0.0729
86.9482, 0.0608
86.9585, 0.0573
86.9688, 0.0434
86.9791, 0.0590
86.9894, 0.0538
86.9997, 0.0781
87.0100, 0.0677
87.0203, 0.0781
87.0306, 0.0642
87.0409, 0.0642
87.0512, 0.0503
87.0615, 0.0660
87.0718, 0.0868
87.0821, 0.0903
87.0924, 0.0642
87.1027, 0.0694
87.1130, 0.0885
87.1233, 0.0747
87.1337, 0.0851
87.1440, 0.1007
87.1543, 0.0781
87.1646, 0.1128
87.1749, 0.0972
87.1852, 0.1076
87.1955, 0.0990
87.2058, 0.1076
87.2161, 0.1233
87.2264, 0.1215
87.2367, 0.1163
87.2470, 0.1441
87.2573, 0.1493
87.2676, 0.1597
87.2779, 0.1493
87.2882, 0.1528
87.2985, 0.1545
87.3088, 0.1476
87.3191, 0.1719
87.3294, 0.1632
87.3397, 0.1580
87.3500, 0.1267
87.3603, 0.1753
87.3706, 0.1563
87.3809, 0.1563
87.3913, 0.1476
87.4016, 0.1701
87.4119, 0.1753
87.4222, 0.1667
87.4325, 0.1406
87.4428, 0.1372
87.4531, 0.1215
87.4634, 0.1615
87.4737, 0.1372
87.4840, 0.1510
87.4943, 0.1545
87.5046, 0.1354
87.5149, 0.1111
87.5252, 0.1250
87.5355, 0.1510
87.5458, 0.1354
87.5561, 0.1510
87.5664, 0.1510
87.5767, 0.1354
87.5870, 0.1458
87.5973, 0.1406
87.6076, 0.1528
87.6179, 0.1111
87.6282, 0.1198
87.6386, 0.1458
87.6489, 0.1302
87.6592, 0.1059
87.6695, 0.1128
87.6798, 0.0938
87.6901, 0.0851
87.7004, 0.1059
87.7107, 0.0972
87.7210, 0.0816
87.7313, 0.0851
87.7416, 0.0885
87.7519, 0.0955
87.7622, 0.0868
87.7725, 0.0851
87.7828, 0.0712
87.7931, 0.0833
87.8034, 0.0868
87.8137, 0.0729
87.8240, 0.0938
87.8343, 0.0538
87.8446, 0.0694
87.8549, 0.0538
87.8652, 0.0712
87.8755, 0.0764
87.8858, 0.0764
87.8962, 0.0747
87.9065, 0.0694
87.9168, 0.0451
87.9271, 0.0590
87.9374, 0.0816
87.9477, 0.0851
87.9580, 0.0538
87.9683, 0.0469
87.9786, 0.0538
87.9889, 0.0747
87.9992, 0.0677
88.0095, 0.0469
88.0198, 0.0642
88.0301, 0.0573
88.0404, 0.0556
88.0507, 0.0556
88.0610, 0.0694
88.0713, 0.0556
88.0816, 0.0556
88.0919, 0.0434
88.1022, 0.0521
88.1125, 0.0556
88.1228, 0.0590
88.1331, 0.0608
88.1434, 0.0556
88.1538, 0.0469
88.1641, 0.0625
88.1744, 0.0486
88.1847, 0.0503
88.1950, 0.0503
88.2053, 0.0556
88.2156, 0.0642
88.2259, 0.0417
88.2362, 0.0521
88.2465, 0.0573
88.2568, 0.0538
88.2671, 0.0660
88.2774, 0.0486
88.2877, 0.0521
88.2980, 0.0434
88.3083, 0.0642
88.3186, 0.0677
88.3289, 0.0556
88.3392, 0.0573
88.3495, 0.0486
88.3598, 0.0590
88.3701, 0.0434
88.3804, 0.0521
88.3907, 0.0556
88.4011, 0.0365
88.4114, 0.0573
88.4217, 0.0538
88.4320, 0.0538
88.4423, 0.0538
88.4526, 0.0590
88.4629, 0.0486
88.4732, 0.0521
88.4835, 0.0625
88.4938, 0.0451
88.5041, 0.0503
88.5144, 0.0313
88.5247, 0.0625
88.5350, 0.0399
88.5453, 0.0556
88.5556, 0.0573
88.5659, 0.0677
88.5762, 0.0451
88.5865, 0.0625
88.5968, 0.0747
88.6071, 0.0625
88.6174, 0.0625
88.6277, 0.0434
88.6380, 0.0521
88.6483, 0.0469
88.6587, 0.0503
88.6690, 0.0694
88.6793, 0.0625
88.6896, 0.0764
88.6999, 0.0399
88.7102, 0.0451
88.7205, 0.0417
88.7308, 0.0642
88.7411, 0.0660
88.7514, 0.0677
88.7617, 0.0608
88.7720, 0.0573
88.7823, 0.0556
88.7926, 0.0573
88.8029, 0.0590
88.8132, 0.0712
88.8235, 0.0625
88.8338, 0.0625
88.8441, 0.0625
88.8544, 0.0538
88.8647, 0.0521
88.8750, 0.0573
88.8853, 0.0469
88.8956, 0.0521
88.9060, 0.0590
88.9163, 0.0451
88.9266, 0.0608
88.9369, 0.0608
88.9472, 0.0469
88.9575, 0.0625
88.9678, 0.0451
88.9781, 0.0469
88.9884, 0.0347
88.9987, 0.0521
89.0090, 0.0486
89.0193, 0.0590
89.0296, 0.0417
89.0399, 0.0503
89.0502, 0.0729
89.0605, 0.0451
89.0708, 0.0642
89.0811, 0.0590
89.0914, 0.0521
89.1017, 0.0625
89.1120, 0.0538
89.1223, 0.0625
89.1326, 0.0677
89.1429, 0.0677
89.1532, 0.0660
89.1636, 0.0799
89.1739, 0.0608
89.1842, 0.0816
89.1945, 0.0694
89.2048, 0.0521
89.2151, 0.0625
89.2254, 0.0712
89.2357, 0.0556
89.2460, 0.0642
89.2563, 0.0694
89.2666, 0.0642
89.2769, 0.0642
89.2872, 0.0573
89.2975, 0.0677
89.3078, 0.0608
89.3181, 0.0608
89.3284, 0.0694
89.3387, 0.0608
89.3490, 0.0677
89.3593, 0.0573
89.3696, 0.0938
89.3799, 0.0573
89.3902, 0.0625
89.4005, 0.0538
89.4108, 0.0677
89.4212, 0.0642
89.4315, 0.0729
89.4418, 0.0538
89.4521, 0.0955
89.4624, 0.0712
89.4727, 0.0729
89.4830, 0.0729
89.4933, 0.0747
89.5036, 0.0747
89.5139, 0.0799
89.5242, 0.0608
89.5345, 0.0729
89.5448, 0.0642
89.5551, 0.0642
89.5654, 0.1059
89.5757, 0.0764
89.5860, 0.0868
89.5963, 0.0764
89.6066, 0.0851
89.6169, 0.0990
89.6272, 0.0642
89.6375, 0.1094
89.6478, 0.0660
89.6581, 0.0729
89.6685, 0.0816
89.6788, 0.0938
89.6891, 0.0903
89.6994, 0.0694
89.7097, 0.0799
89.7200, 0.0972
89.7303, 0.0816
89.7406, 0.1094
89.7509, 0.0990
89.7612, 0.0851
89.7715, 0.0938
89.7818, 0.1024
89.7921, 0.1007
89.8024, 0.1181
89.8127, 0.0764
89.8230, 0.0851
89.8333, 0.1163
89.8436, 0.1076
89.8539, 0.1042
89.8642, 0.1163
89.8745, 0.1059
89.8848, 0.1354
89.8951, 0.0990
89.9054, 0.1181
89.9157, 0.1389
89.9261, 0.1024
89.9364, 0.1319
89.9467, 0.1267
89.9570, 0.1267
89.9673, 0.1128
89.9776, 0.1285
89.9879, 0.1406
89.9982, 0.1406
90.0085, 0.1823
90.0188, 0.1458
90.0291, 0.1389
90.0394, 0.1649
90.0497, 0.1806
90.0600, 0.1858
90.0703, 0.1997
90.0806, 0.2170
90.0909, 0.2465
90.1012, 0.1997
90.1115, 0.2500
90.1218, 0.2483
90.1321, 0.2639
90.1424, 0.2569
90.1527, 0.2951
90.1630, 0.2726
90.1733, 0.3021
90.1837, 0.3073
90.1940, 0.3125
90.2043, 0.3368
90.2146, 0.3003
90.2249, 0.3490
90.2352, 0.3333
90.2455, 0.3472
90.2558, 0.3611
90.2661, 0.3628
90.2764, 0.3472
90.2867, 0.3542
90.2970, 0.3767
90.3073, 0.3194
90.3176, 0.3194
90.3279, 0.2813
90.3382, 0.3576
90.3485, 0.3507
90.3588, 0.3594
90.3691, 0.3368
90.3794, 0.3299
90.3897, 0.3333
90.4000, 0.3333
90.4103, 0.3611
90.4206, 0.3316
90.4310, 0.3420
90.4413, 0.3264
90.4516, 0.3264
90.4619, 0.3125
90.4722, 0.3090
90.4825, 0.3125
90.4928, 0.2656
90.5031, 0.3073
90.5134, 0.3194
90.5237, 0.3073
90.5340, 0.2622
90.5443, 0.2743
90.5546, 0.3333
90.5649, 0.2708
90.5752, 0.2639
90.5855, 0.2569
90.5958, 0.2448
90.6061, 0.2205
90.6164, 0.2535
90.6267, 0.2378
90.6370, 0.2483
90.6473, 0.2170
90.6576, 0.2760
90.6679, 0.2135
90.6782, 0.2326
90.6886, 0.2014
90.6989, 0.2101
90.7092, 0.1736
90.7195, 0.1632
90.7298, 0.1528
90.7401, 0.1597
90.7504, 0.1684
90.7607, 0.1615
90.7710, 0.1701
90.7813, 0.1302
90.7916, 0.1424
90.8019, 0.1181
90.8122, 0.1580
90.8225, 0.1111
90.8328, 0.1458
90.8431, 0.1146
90.8534, 0.1024
90.8637, 0.1250
90.8740, 0.1128
90.8843, 0.0990
90.8946, 0.1024
90.9049, 0.0920
90.9152, 0.1007
90.9255, 0.0885
90.9358, 0.1163
90.9462, 0.1059
90.9565, 0.1007
90.9668, 0.0990
90.9771, 0.1059
90.9874, 0.0885
90.9977, 0.0816
91.0080, 0.0903
91.0183, 0.0712
91.0286, 0.0694
91.0389, 0.1042
91.0492, 0.0868
91.0595, 0.0712
91.0698, 0.0764
91.0801, 0.0729
91.0904, 0.0729
91.1007, 0.0590
91.1110, 0.0590
91.1213, 0.0486
91.1316, 0.0694
91.1419, 0.0781
91.1522, 0.0503
91.1625, 0.0833
91.1728, 0.0868
91.1831, 0.0625
91.1935, 0.0625
91.2038, 0.0694
91.2141, 0.0677
91.2244, 0.0608
91.2347, 0.0764
91.2450, 0.0503
91.2553, 0.0608
91.2656, 0.0799
91.2759, 0.0729
91.2862, 0.0729
91.2965, 0.0521
91.3068, 0.0573
91.3171, 0.0694
91.3274, 0.0608
91.3377, 0.0625
91.3480, 0.0451
91.3583, 0.0260
91.3686, 0.0590
91.3789, 0.0781
91.3892, 0.0660
91.3995, 0.0660
91.4098, 0.0625
91.4201, 0.0503
91.4304, 0.0833
91.4407, 0.0608
91.4511, 0.0469
91.4614, 0.0608
91.4717, 0.0486
91.4820, 0.0538
91.4923, 0.0590
91.5026, 0.0747
91.5129, 0.0451
91.5232, 0.0556
91.5335, 0.0712
91.5438, 0.0590
91.5541, 0.0486
91.5644, 0.0729
91.5747, 0.0573
91.5850, 0.0556
91.5953, 0.0503
91.6056, 0.0625
91.6159, 0.0434
91.6262, 0.0521
91.6365, 0.0573
91.6468, 0.0625
91.6571, 0.0434
91.6674, 0.0590
91.6777, 0.0365
91.6880, 0.0434
91.6984, 0.0451
91.7087, 0.0538
91.7190, 0.0382
91.7293, 0.0486
91.7396, 0.0451
91.7499, 0.0521
91.7602, 0.0642
91.7705, 0.0590
91.7808, 0.0712
91.7911, 0.0434
91.8014, 0.0330
91.8117, 0.0382
91.8220, 0.0625
91.8323, 0.0399
91.8426, 0.0556
91.8529, 0.0365
91.8632, 0.0365
91.8735, 0.0486
91.8838, 0.0503
91.8941, 0.0747
91.9044, 0.0469
91.9147, 0.0677
91.9250, 0.0486
91.9353, 0.0469
91.9456, 0.0469
91.9560, 0.0590
91.9663, 0.0486
91.9766, 0.0486
91.9869, 0.0538
91.9972, 0.0434
92.0075, 0.0729
92.0178, 0.0434
92.0281, 0.0451
92.0384, 0.0660
92.0487, 0.0486
92.0590, 0.0434
92.0693, 0.0608
92.0796, 0.0434
92.0899, 0.0642
92.1002, 0.0469
92.1105, 0.0365
92.1208, 0.0365
92.1311, 0.0556
92.1414, 0.0590
92.1517, 0.0347
92.1620, 0.0451
92.1723, 0.0469
92.1826, 0.0556
92.1929, 0.0521
92.2032, 0.0434
92.2136, 0.0573
92.2239, 0.0451
92.2342, 0.0382
92.2445, 0.0556
92.2548, 0.0382
92.2651, 0.0347
92.2754, 0.0590
92.2857, 0.0764
92.2960, 0.0538
92.3063, 0.0417
92.3166, 0.0729
92.3269, 0.0486
92.3372, 0.0573
92.3475, 0.0608
92.3578, 0.0608
92.3681, 0.0469
92.3784, 0.0451
92.3887, 0.0434
92.3990, 0.0451
92.4093, 0.0590
92.4196, 0.0382
92.4299, 0.0642
92.4402, 0.0434
92.4505, 0.0556
92.4609, 0.0434
92.4712, 0.0399
92.4815, 0.0451
92.4918, 0.0451
92.5021, 0.0660
92.5124, 0.0642
92.5227, 0.0538
92.5330, 0.0625
92.5433, 0.0469
92.5536, 0.0521
92.5639, 0.0503
92.5742, 0.0503
92.5845, 0.0660
92.5948, 0.0642
92.6051, 0.0382
92.6154, 0.0677
92.6257, 0.0399
92.6360, 0.0469
92.6463, 0.0417
92.6566, 0.0347
92.6669, 0.0503
92.6772, 0.0556
92.6875, 0.0503
92.6978, 0.0469
92.7081, 0.0556
92.7185, 0.0521
92.7288, 0.0556
92.7391, 0.0417
92.7494, 0.0365
92.7597, 0.0417
92.7700, 0.0521
92.7803, 0.0451
92.7906, 0.0486
92.8009, 0.0469
92.8112, 0.0521
92.8215, 0.0590
92.8318, 0.0538
92.8421, 0.0503
92.8524, 0.0382
92.8627, 0.0330
92.8730, 0.0451
92.8833, 0.0503
92.8936, 0.0486
92.9039, 0.0486
92.9142, 0.0486
92.9245, 0.0573
92.9348, 0.0347
92.9451, 0.0486
92.9554, 0.0469
92.9657, 0.0365
92.9761, 0.0469
92.9864, 0.0503
92.9967, 0.0434
93.0070, 0.0434
93.0173, 0.0382
93.0276, 0.0538
93.0379, 0.0417
93.0482, 0.0451
93.0585, 0.0382
93.0688, 0.0556
93.0791, 0.0590
93.0894, 0.0503
93.0997, 0.0417
93.1100, 0.0747
93.1203, 0.0469
93.1306, 0.0486
93.1409, 0.0521
93.1512, 0.0573
93.1615, 0.0608
93.1718, 0.0573
93.1821, 0.0764
93.1924, 0.0503
93.2027, 0.0590
93.2130, 0.0573
93.2234, 0.0417
93.2337, 0.0625
93.2440, 0.0642
93.2543, 0.0365
93.2646, 0.0503
93.2749, 0.0486
93.2852, 0.0677
93.2955, 0.0451
93.3058, 0.0660
93.3161, 0.0556
93.3264, 0.0712
93.3367, 0.0469
93.3470, 0.0712
93.3573, 0.0642
93.3676, 0.0712
93.3779, 0.0521
93.3882, 0.0694
93.3985, 0.0573
93.4088, 0.0556
93.4191, 0.0538
93.4294, 0.0608
93.4397, 0.0538
93.4500, 0.0399
93.4603, 0.0677
93.4706, 0.0851
93.4810, 0.0642
93.4913, 0.0799
93.5016, 0.0434
93.5119, 0.0503
93.5222, 0.0469
93.5325, 0.0625
93.5428, 0.0608
93.5531, 0.0625
93.5634, 0.0556
93.5737, 0.0521
93.5840, 0.0712
93.5943, 0.0747
93.6046, 0.0451
93.6149, 0.0677
93.6252, 0.0469
93.6355, 0.0486
93.6458, 0.0503
93.6561, 0.0556
93.6664, 0.0434
93.6767, 0.0503
93.6870, 0.0313
93.6973, 0.0521
93.7076, 0.0521
93.7179, 0.0503
93.7282, 0.0573
93.7386, 0.0382
93.7489, 0.0521
93.7592, 0.0417
93.7695, 0.0625
93.7798, 0.0417
93.7901, 0.0503
93.8004, 0.0573
93.8107, 0.0469
93.8210, 0.0503
93.8313, 0.0608
93.8416, 0.0590
93.8519, 0.0434
93.8622, 0.0469
93.8725, 0.0590
93.8828, 0.0538
93.8931, 0.0677
93.9034, 0.0590
93.9137, 0.0608
93.9240, 0.0590
93.9343, 0.0521
93.9446, 0.0486
93.9549, 0.0625
93.9652, 0.0330
93.9755, 0.0590
93.9859, 0.0538
93.9962, 0.0503
94.0065, 0.0521
94.0168, 0.0729
94.0271, 0.0538
94.0374, 0.0608
94.0477, 0.0608
94.0580, 0.0486
94.0683, 0.0660
94.0786, 0.0556
94.0889, 0.0642
94.0992, 0.0330
94.1095, 0.0486
94.1198, 0.0556
94.1301, 0.0590
94.1404, 0.0573
94.1507, 0.0538
94.1610, 0.0451
94.1713, 0.0608
94.1816, 0.0434
94.1919, 0.0503
94.2022, 0.0764
94.2125, 0.0503
94.2228, 0.0625
94.2331, 0.0590
94.2435, 0.0677
94.2538, 0.0573
94.2641, 0.0365
94.2744, 0.0538
94.2847, 0.0677
94.2950, 0.0503
94.3053, 0.0521
94.3156, 0.0434
94.3259, 0.0590
94.3362, 0.0556
94.3465, 0.0556
94.3568, 0.0573
94.3671, 0.0556
94.3774, 0.0399
94.3877, 0.0486
94.3980, 0.0694
94.4083, 0.0747
94.4186, 0.0608
94.4289, 0.0486
94.4392, 0.0503
94.4495, 0.0590
94.4598, 0.0330
94.4701, 0.0521
94.4804, 0.0573
94.4908, 0.0451
94.5011, 0.0556
94.5114, 0.0660
94.5217, 0.0469
94.5320, 0.0434
94.5423, 0.0573
94.5526, 0.0642
94.5629, 0.0608
94.5732, 0.0625
94.5835, 0.0556
94.5938, 0.0590
94.6041, 0.0573
94.6144, 0.0590
94.6247, 0.0816
94.6350, 0.0608
94.6453, 0.0590
94.6556, 0.0503
94.6659, 0.0781
94.6762, 0.0712
94.6865, 0.0660
94.6968, 0.0660
94.7071, 0.0538
94.7174, 0.0590
94.7277, 0.0747
94.7380, 0.0642
94.7484, 0.0677
94.7587, 0.0747
94.7690, 0.0729
94.7793, 0.0747
94.7896, 0.0851
94.7999, 0.0868
94.8102, 0.0816
94.8205, 0.0816
94.8308, 0.0625
94.8411, 0.0868
94.8514, 0.0781
94.8617, 0.0729
94.8720, 0.0990
94.8823, 0.1233
94.8926, 0.0851
94.9029, 0.1163
94.9132, 0.1059
94.9235, 0.1267
94.9338, 0.0972
94.9441, 0.1458
94.9544, 0.0972
94.9647, 0.1059
94.9750, 0.1319
94.9853, 0.1094
94.9956, 0.1302
95.0060, 0.1198
95.0163, 0.1701
95.0266, 0.1285
95.0369, 0.1319
95.0472, 0.1337
95.0575, 0.1250
95.0678, 0.1424
95.0781, 0.1493
95.0884, 0.1372
95.0987, 0.1337
95.1090, 0.1528
95.1193, 0.1615
95.1296, 0.1615
95.1399, 0.1441
95.1502, 0.1563
95.1605, 0.1319
95.1708, 0.1285
95.1811, 0.1458
95.1914, 0.1510
95.2017, 0.1267
95.2120, 0.1545
95.2223, 0.1649
95.2326, 0.1406
95.2429, 0.1649
95.2533, 0.1597
95.2636, 0.1563
95.2739, 0.1632
95.2842, 0.1337
95.2945, 0.1458
95.3048, 0.1354
95.3151, 0.1458
95.3254, 0.1406
95.3357, 0.1163
95.3460, 0.1319
95.3563, 0.1441
95.3666, 0.1285
95.3769, 0.1337
95.3872, 0.1337
95.3975, 0.1372
95.4078, 0.1563
95.4181, 0.1285
95.4284, 0.1042
95.4387, 0.1163
95.4490, 0.1267
95.4593, 0.1267
95.4696, 0.1163
95.4799, 0.0938
95.4902, 0.1128
95.5005, 0.1215
95.5109, 0.1128
95.5212, 0.1319
95.5315, 0.1007
95.5418, 0.1285
95.5521, 0.1181
95.5624, 0.0972
95.5727, 0.1215
95.5830, 0.0972
95.5933, 0.1111
95.6036, 0.0903
95.6139, 0.1007
95.6242, 0.1059
95.6345, 0.1059
95.6448, 0.0608
95.6551, 0.0885
95.6654, 0.0538
95.6757, 0.0764
95.6860, 0.1007
95.6963, 0.0868
95.7066, 0.0764
95.7169, 0.0903
95.7272, 0.0781
95.7375, 0.0764
95.7478, 0.0781
95.7581, 0.0903
95.7685, 0.0781
95.7788, 0.0729
95.7891, 0.0660
95.7994, 0.0833
95.8097, 0.0729
95.8200, 0.0712
95.8303, 0.0590
95.8406, 0.0642
95.8509, 0.0642
95.8612, 0.0816
95.8715, 0.0920
95.8818, 0.0677
95.8921, 0.0729
95.9024, 0.0590
95.9127, 0.0903
95.9230, 0.0712
95.9333, 0.0729
95.9436, 0.0694
95.9539, 0.0642
95.9642, 0.0573
95.9745, 0.0642
95.9848, 0.0365
95.9951, 0.0660
96.0054, 0.0608
96.0158, 0.0625
96.0261, 0.0903
96.0364, 0.0660
96.0467, 0.0660
96.0570, 0.0729
96.0673, 0.0469
96.0776, 0.0712
96.0879, 0.0747
96.0982, 0.0781
96.1085, 0.0833
96.1188, 0.0608
96.1291, 0.0642
96.1394, 0.0729
96.1497, 0.0833
96.1600, 0.0660
96.1703, 0.0556
96.1806, 0.0625
96.1909, 0.0660
96.2012, 0.0885
96.2115, 0.0625
96.2218, 0.0608
96.2321, 0.0503
96.2424, 0.0660
96.2527, 0.0556
96.2630, 0.0556
96.2734, 0.0573
96.2837, 0.0590
96.2940, 0.0608
96.3043, 0.0660
96.3146, 0.0642
96.3249, 0.0868
96.3352, 0.0503
96.3455, 0.0747
96.3558, 0.0573
96.3661, 0.0729
96.3764, 0.0781
96.3867, 0.0625
96.3970, 0.0764
96.4073, 0.0556
96.4176, 0.0469
96.4279, 0.0503
96.4382, 0.0694
96.4485, 0.0486
96.4588, 0.0538
96.4691, 0.0712
96.4794, 0.0503
96.4897, 0.0590
96.5000, 0.0573
96.5103, 0.0590
96.5206, 0.0642
96.5310, 0.0521
96.5413, 0.0642
96.5516, 0.0833
96.5619, 0.0642
96.5722, 0.0573
96.5825, 0.0503
96.5928, 0.0451
96.6031, 0.0417
96.6134, 0.0590
96.6237, 0.0694
96.6340, 0.0573
96.6443, 0.0538
96.6546, 0.0573
96.6649, 0.0538
96.6752, 0.0556
96.6855, 0.0434
96.6958, 0.0556
96.7061, 0.0556
96.7164, 0.0556
96.7267, 0.0625
96.7370, 0.0521
96.7473, 0.0451
96.7576, 0.0556
96.7679, 0.0608
96.7783, 0.0399
96.7886, 0.0590
96.7989, 0.0330
96.8092, 0.0382
96.8195, 0.0399
96.8298, 0.0556
96.8401, 0.0486
96.8504, 0.0451
96.8607, 0.0608
96.8710, 0.0503
96.8813, 0.0521
96.8916, 0.0469
96.9019, 0.0538
96.9122, 0.0642
96.9225, 0.0451
96.9328, 0.0642
96.9431, 0.0399
96.9534, 0.0573
96.9637, 0.0451
96.9740, 0.0451
96.9843, 0.0590
96.9946, 0.0486
97.0049, 0.0521
97.0152, 0.0451
97.0255, 0.0660
97.0359, 0.0660
97.0462, 0.0538
97.0565, 0.0486
97.0668, 0.0434
97.0771, 0.0712
97.0874, 0.0469
97.0977, 0.0642
97.1080, 0.0625
97.1183, 0.0538
97.1286, 0.0434
97.1389, 0.0503
97.1492, 0.0625
97.1595, 0.0538
97.1698, 0.0434
97.1801, 0.0417
97.1904, 0.0399
97.2007, 0.0538
97.2110, 0.0486
97.2213, 0.0573
97.2316, 0.0521
97.2419, 0.0573
97.2522, 0.0382
97.2625, 0.0382
97.2728, 0.0521
97.2831, 0.0417
97.2935, 0.0556
97.3038, 0.0556
97.3141, 0.0417
97.3244, 0.0451
97.3347, 0.0573
97.3450, 0.0538
97.3553, 0.0451
97.3656, 0.0469
97.3759, 0.0521
97.3862, 0.0521
97.3965, 0.0538
97.4068, 0.0556
97.4171, 0.0660
97.4274, 0.0608
97.4377, 0.0417
97.4480, 0.0642
97.4583, 0.0451
97.4686, 0.0451
97.4789, 0.0469
97.4892, 0.0382
97.4995, 0.0625
97.5098, 0.0347
97.5201, 0.0556
97.5304, 0.0625
97.5408, 0.0417
97.5511, 0.0347
97.5614, 0.0365
97.5717, 0.0469
97.5820, 0.0399
97.5923, 0.0486
97.6026, 0.0347
97.6129, 0.0521
97.6232, 0.0521
97.6335, 0.0469
97.6438, 0.0538
97.6541, 0.0451
97.6644, 0.0538
97.6747, 0.0451
97.6850, 0.0521
97.6953, 0.0399
97.7056, 0.0330
97.7159, 0.0382
97.7262, 0.0330
97.7365, 0.0417
97.7468, 0.0469
97.7571, 0.0503
97.7674, 0.0434
97.7777, 0.0503
97.7880, 0.0399
97.7984, 0.0365
97.8087, 0.0382
97.8190, 0.0503
97.8293, 0.0521
97.8396, 0.0365
97.8499, 0.0469
97.8602, 0.0503
97.8705, 0.0365
97.8808, 0.0399
97.8911, 0.0365
97.9014, 0.0330
97.9117, 0.0399
97.9220, 0.0469
97.9323, 0.0313
97.9426, 0.0486
97.9529, 0.0469
97.9632, 0.0365
97.9735, 0.0469
97.9838, 0.0434
97.9941, 0.0469
98.0044, 0.0399
98.0147, 0.0313
98.0250, 0.0521
98.0353, 0.0417
98.0457, 0.0503
98.0560, 0.0382
98.0663, 0.0313
98.0766, 0.0434
98.0869, 0.0434
98.0972, 0.0608
98.1075, 0.0295
98.1178, 0.0347
98.1281, 0.0295
98.1384, 0.0347
98.1487, 0.0469
98.1590, 0.0451
98.1693, 0.0347
98.1796, 0.0399
98.1899, 0.0347
98.2002, 0.0365
98.2105, 0.0313
98.2208, 0.0399
98.2311, 0.0330
98.2414, 0.0365
98.2517, 0.0347
98.2620, 0.0399
98.2723, 0.0330
98.2826, 0.0417
98.2929, 0.0451
98.3033, 0.0417
98.3136, 0.0295
98.3239, 0.0226
98.3342, 0.0208
98.3445, 0.0451
98.3548, 0.0191
98.3651, 0.0330
98.3754, 0.0365
98.3857, 0.0260
98.3960, 0.0417
98.4063, 0.0347
98.4166, 0.0295
98.4269, 0.0330
98.4372, 0.0260
98.4475, 0.0191
98.4578, 0.0330
98.4681, 0.0278
98.4784, 0.0313
98.4887, 0.0486
98.4990, 0.0330
98.5093, 0.0330
98.5196, 0.0382
98.5299, 0.0365
98.5402, 0.0365
98.5505, 0.0278
98.5609, 0.0278
98.5712, 0.0469
98.5815, 0.0313
98.5918, 0.0365
98.6021, 0.0295
98.6124, 0.0295
98.6227, 0.0330
98.6330, 0.0313
98.6433, 0.0399
98.6536, 0.0295
98.6639, 0.0313
98.6742, 0.0417
98.6845, 0.0417
98.6948, 0.0330
98.7051, 0.0347
98.7154, 0.0243
98.7257, 0.0382
98.7360, 0.0399
98.7463, 0.0434
98.7566, 0.0295
98.7669, 0.0382
98.7772, 0.0347
98.7875, 0.0174
98.7978, 0.0382
98.8082, 0.0313
98.8185, 0.0295
98.8288, 0.0382
98.8391, 0.0226
98.8494, 0.0556
98.8597, 0.0399
98.8700, 0.0330
98.8803, 0.0260
98.8906, 0.0365
98.9009, 0.0313
98.9112, 0.0486
98.9215, 0.0486
98.9318, 0.0417
98.9421, 0.0417
98.9524, 0.0347
98.9627, 0.0347
98.9730, 0.0330
98.9833, 0.0226
98.9936, 0.0382
99.0039, 0.0434
99.0142, 0.0417
99.0245, 0.0295
99.0348, 0.0330
99.0451, 0.0469
99.0554, 0.0330
99.0658, 0.0399
99.0761, 0.0451
99.0864, 0.0365
99.0967, 0.0538
99.1070, 0.0347
99.1173, 0.0486
99.1276, 0.0590
99.1379, 0.0347
99.1482, 0.0417
99.1585, 0.0417
99.1688, 0.0521
99.1791, 0.0313
99.1894, 0.0347
99.1997, 0.0451
99.2100, 0.0278
99.2203, 0.0330
99.2306, 0.0434
99.2409, 0.0330
99.2512, 0.0295
99.2615, 0.0451
99.2718, 0.0417
99.2821, 0.0278
99.2924, 0.0503
99.3027, 0.0538
99.3130, 0.0382
99.3234, 0.0469
99.3337, 0.0434
99.3440, 0.0417
99.3543, 0.0365
99.3646, 0.0330
99.3749, 0.0347
99.3852, 0.0417
99.3955, 0.0503
99.4058, 0.0573
99.4161, 0.0295
99.4264, 0.0434
99.4367, 0.0313
99.4470, 0.0434
99.4573, 0.0486
99.4676, 0.0295
99.4779, 0.0434
99.4882, 0.0417
99.4985, 0.0365
99.5088, 0.0382
99.5191, 0.0399
99.5294, 0.0313
99.5397, 0.0382
99.5500, 0.0382
99.5603, 0.0503
99.5707, 0.0399
99.5810, 0.0313
99.5913, 0.0260
99.6016, 0.0174
99.6119, 0.0347
99.6222, 0.0382
99.6325, 0.0330
99.6428, 0.0434
99.6531, 0.0538
99.6634, 0.0399
99.6737, 0.0434
99.6840, 0.0295
99.6943, 0.0434
99.7046, 0.0330
99.7149, 0.0278
99.7252, 0.0278
99.7355, 0.0260
99.7458, 0.0365
99.7561, 0.0365
99.7664, 0.0330
99.7767, 0.0382
99.7870, 0.0434
99.7973, 0.0313
99.8076, 0.0399
99.8179, 0.0590
99.8283, 0.0278
99.8386, 0.0347
99.8489, 0.0260
99.8592, 0.0330
99.8695, 0.0382
99.8798, 0.0451
99.8901, 0.0365
99.9004, 0.0503
99.9107, 0.0278
99.9210, 0.0417
99.9313, 0.0330
99.9416, 0.0313
99.9519, 0.0382
99.9622, 0.0469
99.9725, 0.0330
99.9828, 0.0434
99.9931, 0.0365
100.0034, 0.0347
100.0137, 0.0399
100.0240, 0.0295
100.0343, 0.0330
100.0446, 0.0382
100.0549, 0.0417
100.0652, 0.0434
100.0755, 0.0538
100.0859, 0.0365
100.0962, 0.0226
100.1065, 0.0451
100.1168, 0.0556
100.1271, 0.0260
100.1374, 0.0382
100.1477, 0.0503
100.1580, 0.0330
100.1683, 0.0469
100.1786, 0.0399
100.1889, 0.0382
100.1992, 0.0243
100.2095, 0.0347
100.2198, 0.0434
100.2301, 0.0313
100.2404, 0.0365
100.2507, 0.0278
100.2610, 0.0399
100.2713, 0.0503
100.2816, 0.0417
100.2919, 0.0399
100.3022, 0.0469
100.3125, 0.0469
100.3228, 0.0365
100.3332, 0.0451
100.3435, 0.0486
100.3538, 0.0313
100.3641, 0.0521
100.3744, 0.0243
100.3847, 0.0399
100.3950, 0.0382
100.4053, 0.0382
100.4156, 0.0382
100.4259, 0.0382
100.4362, 0.0417
100.4465, 0.0503
100.4568, 0.0538
100.4671, 0.0417
100.4774, 0.0486
100.4877, 0.0313
100.4980, 0.0365
100.5083, 0.0347
100.5186, 0.0382
100.5289, 0.0642
100.5392, 0.0521
100.5495, 0.0556
100.5598, 0.0330
100.5701, 0.0521
100.5804, 0.0313
100.5908, 0.0278
100.6011, 0.0486
100.6114, 0.0313
100.6217, 0.0313
100.6320, 0.0347
100.6423, 0.0434
100.6526, 0.0365
100.6629, 0.0347
100.6732, 0.0278
100.6835, 0.0313
100.6938, 0.0556
100.7041, 0.0330
100.7144, 0.0260
100.7247, 0.0347
100.7350, 0.0313
100.7453, 0.0382
100.7556, 0.0382
100.7659, 0.0434
100.7762, 0.0330
100.7865, 0.0330
100.7968, 0.0295
100.8071, 0.0330
100.8174, 0.0347
100.8277, 0.0469
100.8381, 0.0347
100.8484, 0.0208
100.8587, 0.0313
100.8690, 0.0399
100.8793, 0.0347
100.8896, 0.0451
100.8999, 0.0243
100.9102, 0.0295
100.9205, 0.0347
100.9308, 0.0469
100.9411, 0.0365
100.9514, 0.0417
100.9617, 0.0399
100.9720, 0.0521
100.9823, 0.0521
100.9926, 0.0417
101.0029, 0.0365
101.0132, 0.0295
101.0235, 0.0313
101.0338, 0.0469
101.0441, 0.0347
101.0544, 0.0330
101.0647, 0.0347
101.0750, 0.0451
101.0853, 0.0347
101.0957, 0.0313
101.1060, 0.0451
101.1163, 0.0451
101.1266, 0.0503
101.1369, 0.0365
101.1472, 0.0365
101.1575, 0.0451
101.1678, 0.0538
101.1781, 0.0260
101.1884, 0.0295
101.1987, 0.0347
101.2090, 0.0434
101.2193, 0.0313
101.2296, 0.0451
101.2399, 0.0503
101.2502, 0.0434
101.2605, 0.0365
101.2708, 0.0434
101.2811, 0.0503
101.2914, 0.0434
101.3017, 0.0295
101.3120, 0.0260
101.3223, 0.0313
101.3326, 0.0313
101.3429, 0.0451
101.3533, 0.0330
101.3636, 0.0260
101.3739, 0.0313
101.3842, 0.0417
101.3945, 0.0347
101.4048, 0.0521
101.4151, 0.0365
101.4254, 0.0347
101.4357, 0.0365
101.4460, 0.0278
101.4563, 0.0330
101.4666, 0.0417
101.4769, 0.0503
101.4872, 0.0451
101.4975, 0.0365
101.5078, 0.0382
101.5181, 0.0503
101.5284, 0.0451
101.5387, 0.0260
101.5490, 0.0330
101.5593, 0.0347
101.5696, 0.0486
101.5799, 0.0278
101.5902, 0.0347
101.6006, 0.0295
101.6109, 0.0278
101.6212, 0.0434
101.6315, 0.0434
101.6418, 0.0278
101.6521, 0.0347
101.6624, 0.0313
101.6727, 0.0434
101.6830, 0.0399
101.6933, 0.0503
101.7036, 0.0399
101.7139, 0.0330
101.7242, 0.0451
101.7345, 0.0226
101.7448, 0.0417
101.7551, 0.0365
101.7654, 0.0434
101.7757, 0.0399
101.7860, 0.0330
101.7963, 0.0330
101.8066, 0.0573
101.8169, 0.0521
101.8272, 0.0330
101.8375, 0.0451
101.8478, 0.0503
101.8582, 0.0347
101.8685, 0.0469
101.8788, 0.0451
101.8891, 0.0330
101.8994, 0.0486
101.9097, 0.0347
101.9200, 0.0330
101.9303, 0.0382
101.9406, 0.0313
101.9509, 0.0382
101.9612, 0.0347
101.9715, 0.0503
101.9818, 0.0330
101.9921, 0.0365
102.0024, 0.0295
102.0127, 0.0608
102.0230, 0.0417
102.0333, 0.0486
102.0436, 0.0486
102.0539, 0.0417
102.0642, 0.0451
102.0745, 0.0486
102.0848, 0.0469
102.0951, 0.0365
102.1054, 0.0434
102.1158, 0.0295
102.1261, 0.0365
102.1364, 0.0382
102.1467, 0.0451
102.1570, 0.0365
102.1673, 0.0469
102.1776, 0.0399
102.1879, 0.0451
102.1982, 0.0347
102.2085, 0.0503
102.2188, 0.0330
102.2291, 0.0313
102.2394, 0.0677
102.2497, 0.0330
102.2600, 0.0365
102.2703, 0.0399
102.2806, 0.0556
102.2909, 0.0469
102.3012, 0.0434
102.3115, 0.0278
102.3218, 0.0538
102.3321, 0.0278
102.3424, 0.0538
102.3527, 0.0521
102.3631, 0.0399
102.3734, 0.0399
102.3837, 0.0556
102.3940, 0.0503
102.4043, 0.0399
102.4146, 0.0451
102.4249, 0.0503
102.4352, 0.0382
102.4455, 0.0347
102.4558, 0.0469
102.4661, 0.0347
102.4764, 0.0573
102.4867, 0.0382
102.4970, 0.0521
102.5073, 0.0590
102.5176, 0.0399
102.5279, 0.0451
102.5382, 0.0417
102.5485, 0.0226
102.5588, 0.0625
102.5691, 0.0399
102.5794, 0.0469
102.5897, 0.0556
102.6000, 0.0538
102.6103, 0.0330
102.6207, 0.0538
102.6310, 0.0712
102.6413, 0.0434
102.6516, 0.0538
102.6619, 0.0642
102.6722, 0.0313
102.6825, 0.0712
102.6928, 0.0660
102.7031, 0.0486
102.7134, 0.0486
102.7237, 0.0729
102.7340, 0.0556
102.7443, 0.0625
102.7546, 0.0451
102.7649, 0.0434
102.7752, 0.0486
102.7855, 0.0469
102.7958, 0.0538
102.8061, 0.0486
102.8164, 0.0469
102.8267, 0.0642
102.8370, 0.0677
102.8473, 0.0556
102.8576, 0.0573
102.8679, 0.0521
102.8783, 0.0833
102.8886, 0.0538
102.8989, 0.0799
102.9092, 0.0781
102.9195, 0.0677
102.9298, 0.0816
102.9401, 0.0764
102.9504, 0.0677
102.9607, 0.0590
102.9710, 0.0799
102.9813, 0.0972
102.9916, 0.0920
103.0019, 0.0885
103.0122, 0.1024
103.0225, 0.0885
103.0328, 0.0972
103.0431, 0.0851
103.0534, 0.0868
103.0637, 0.0938
103.0740, 0.0816
103.0843, 0.0972
103.0946, 0.0816
103.1049, 0.0903
103.1152, 0.0885
103.1256, 0.0833
103.1359, 0.0729
103.1462, 0.0938
103.1565, 0.1059
103.1668, 0.0885
103.1771, 0.0833
103.1874, 0.0920
103.1977, 0.0885
103.2080, 0.0920
103.2183, 0.0816
103.2286, 0.0781
103.2389, 0.0938
103.2492, 0.0694
103.2595, 0.0694
103.2698, 0.0712
103.2801, 0.0764
103.2904, 0.0990
103.3007, 0.0833
103.3110, 0.0833
103.3213, 0.0677
103.3316, 0.0729
103.3419, 0.0694
103.3522, 0.0833
103.3625, 0.0747
103.3728, 0.0712
103.3832, 0.0625
103.3935, 0.0590
103.4038, 0.0729
103.4141, 0.0625
103.4244, 0.0712
103.4347, 0.0729
103.4450, 0.0608
103.4553, 0.0799
103.4656, 0.0747
103.4759, 0.0660
103.4862, 0.0833
103.4965, 0.0521
103.5068, 0.0712
103.5171, 0.0608
103.5274, 0.0642
103.5377, 0.0660
103.5480, 0.0868
103.5583, 0.0694
103.5686, 0.0573
103.5789, 0.0573
103.5892, 0.0660
103.5995, 0.0677
103.6098, 0.0660
103.6201, 0.0538
103.6305, 0.0556
103.6408, 0.0556
103.6511, 0.0799
103.6614, 0.0642
103.6717, 0.0625
103.6820, 0.0729
103.6923, 0.0608
103.7026, 0.0590
103.7129, 0.0573
103.7232, 0.0677
103.7335, 0.0521
103.7438, 0.0469
103.7541, 0.0642
103.7644, 0.0608
103.7747, 0.0521
103.7850, 0.0469
103.7953, 0.0347
103.8056, 0.0677
103.8159, 0.0642
103.8262, 0.0451
103.8365, 0.0486
103.8468, 0.0538
103.8571, 0.0538
103.8674, 0.0434
103.8777, 0.0677
103.8881, 0.0747
103.8984, 0.0399
103.9087, 0.0660
103.9190, 0.0486
103.9293, 0.0538
103.9396, 0.0503
103.9499, 0.0382
103.9602, 0.0660
103.9705, 0.0608
103.9808, 0.0486
103.9911, 0.0608
104.0014, 0.0347
104.0117, 0.0538
104.0220, 0.0556
104.0323, 0.0590
104.0426, 0.0608
104.0529, 0.0399
104.0632, 0.0538
104.0735, 0.0573
104.0838, 0.0625
104.0941, 0.0573
104.1044, 0.0486
104.1147, 0.0677
104.1250, 0.0556
104.1353, 0.0573
104.1457, 0.0469
104.1560, 0.0625
104.1663, 0.0625
104.1766, 0.0590
104.1869, 0.0538
104.1972, 0.0538
104.2075, 0.0347
104.2178, 0.0469
104.2281, 0.0694
104.2384, 0.0521
104.2487, 0.0503
104.2590, 0.0625
104.2693, 0.0538
104.2796, 0.0503
104.2899, 0.0503
104.3002, 0.0712
104.3105, 0.0556
104.3208, 0.0451
104.3311, 0.0538
104.3414, 0.0382
104.3517, 0.0573
104.3620, 0.0417
104.3723, 0.0503
104.3826, 0.0538
104.3930, 0.0573
104.4033, 0.0538
104.4136, 0.0503
104.4239, 0.0590
104.4342, 0.0556
104.4445, 0.0538
104.4548, 0.0417
104.4651, 0.0469
104.4754, 0.0521
104.4857, 0.0729
104.4960, 0.0538
104.5063, 0.0538
104.5166, 0.0417
104.5269, 0.0538
104.5372, 0.0469
104.5475, 0.0382
104.5578, 0.0503
104.5681, 0.0330
104.5784, 0.0503
104.5887, 0.0451
104.5990, 0.0608
104.6093, 0.0417
104.6196, 0.0313
104.6299, 0.0434
104.6402, 0.0503
104.6506, 0.0660
104.6609, 0.0538
104.6712, 0.0799
104.6815, 0.0486
104.6918, 0.0521
104.7021, 0.0573
104.7124, 0.0590
104.7227, 0.0573
104.7330, 0.0313
104.7433, 0.0503
104.7536, 0.0642
104.7639, 0.0486
104.7742, 0.0573
104.7845, 0.0382
104.7948, 0.0764
104.8051, 0.0729
104.8154, 0.0469
104.8257, 0.0556
104.8360, 0.0399
104.8463, 0.0486
104.8566, 0.0538
104.8669, 0.0399
104.8772, 0.0608
104.8875, 0.0625
104.8978, 0.0451
104.9082, 0.0538
104.9185, 0.0503
104.9288, 0.0451
104.9391, 0.0521
104.9494, 0.0451
104.9597, 0.0521
104.9700, 0.0469
104.9803, 0.0469
104.9906, 0.0503
105.0009, 0.0521
105.0112, 0.0469
105.0215, 0.0417
105.0318, 0.0521
105.0421, 0.0590
105.0524, 0.0590
105.0627, 0.0399
105.0730, 0.0590
105.0833, 0.0729
105.0936, 0.0469
105.1039, 0.0434
105.1142, 0.0729
105.1245, 0.0573
105.1348, 0.0382
105.1451, 0.0694
105.1555, 0.0660
105.1658, 0.0573
105.1761, 0.0469
105.1864, 0.0625
105.1967, 0.0590
105.2070, 0.0764
105.2173, 0.0556
105.2276, 0.0434
105.2379, 0.0625
105.2482, 0.0747
105.2585, 0.0590
105.2688, 0.0556
105.2791, 0.0451
105.2894, 0.0677
105.2997, 0.0660
105.3100, 0.0608
105.3203, 0.0486
105.3306, 0.0625
105.3409, 0.0469
105.3512, 0.0573
105.3615, 0.0729
105.3718, 0.0556
105.3821, 0.0851
105.3924, 0.0590
105.4027, 0.0833
105.4131, 0.0764
105.4234, 0.0590
105.4337, 0.0660
105.4440, 0.0712
105.4543, 0.0712
105.4646, 0.0486
105.4749, 0.0833
105.4852, 0.0608
105.4955, 0.0851
105.5058, 0.0712
105.5161, 0.0677
105.5264, 0.0764
105.5367, 0.0712
105.5470, 0.0521
105.5573, 0.0868
105.5676, 0.0694
105.5779, 0.0833
105.5882, 0.0677
105.5985, 0.0556
105.6088, 0.0781
105.6191, 0.0677
105.6294, 0.0747
105.6397, 0.0851
105.6500, 0.0781
105.6603, 0.0868
105.6707, 0.0781
105.6810, 0.0938
105.6913, 0.0747
105.7016, 0.1024
105.7119, 0.0781
105.7222, 0.0972
105.7325, 0.0799
105.7428, 0.0764
105.7531, 0.1128
105.7634, 0.0885
105.7737, 0.1233
105.7840, 0.1094
105.7943, 0.1024
105.8046, 0.0938
105.8149, 0.1042
105.8252, 0.1059
105.8355, 0.1042
105.8458, 0.1181
105.8561, 0.1163
105.8664, 0.1424
105.8767, 0.1372
105.8870, 0.1389
105.8973, 0.1406
105.9076, 0.1510
105.9180, 0.1406
105.9283, 0.1372
105.9386, 0.1545
105.9489, 0.1684
105.9592, 0.1840
105.9695, 0.1684
105.9798, 0.1528
105.9901, 0.2049
106.0004, 0.1910
106.0107, 0.2135
106.0210, 0.1632
106.0313, 0.1684
106.0416, 0.1927
106.0519, 0.2274
106.0622, 0.1788
106.0725, 0.2066
106.0828, 0.2222
106.0931, 0.2083
106.1034, 0.1997
106.1137, 0.2118
106.1240, 0.2101
106.1343, 0.2031
106.1446, 0.1736
106.1549, 0.2153
106.1652, 0.1892
106.1756, 0.2031
106.1859, 0.1615
106.1962, 0.1944
106.2065, 0.1875
106.2168, 0.1962
106.2271, 0.1667
106.2374, 0.1944
106.2477, 0.1979
106.2580, 0.1563
106.2683, 0.1684
106.2786, 0.1806
106.2889, 0.1476
106.2992, 0.1701
106.3095, 0.1771
106.3198, 0.2188
106.3301, 0.1667
106.3404, 0.1597
106.3507, 0.1528
106.3610, 0.1736
106.3713, 0.1649
106.3816, 0.1580
106.3919, 0.2066
106.4022, 0.2031
106.4125, 0.1736
106.4229, 0.1701
106.4332, 0.1997
106.4435, 0.1389
106.4538, 0.1736
106.4641, 0.1753
106.4744, 0.1424
106.4847, 0.1632
106.4950, 0.1580
106.5053, 0.1510
106.5156, 0.1406
106.5259, 0.1667
106.5362, 0.1649
106.5465, 0.1441
106.5568, 0.1458
106.5671, 0.1285
106.5774, 0.1632
106.5877, 0.1354
106.5980, 0.1632
106.6083, 0.1215
106.6186, 0.1250
106.6289, 0.1163
106.6392, 0.1076
106.6495, 0.1285
106.6598, 0.1215
106.6701, 0.1493
106.6805, 0.0972
106.6908, 0.1181
106.7011, 0.1424
106.7114, 0.1007
106.7217, 0.1076
106.7320, 0.0990
106.7423, 0.0729
106.7526, 0.0885
106.7629, 0.0955
106.7732, 0.0781
106.7835, 0.0868
106.7938, 0.0833
106.8041, 0.0903
106.8144, 0.0903
106.8247, 0.0747
106.8350, 0.0955
106.8453, 0.0920
106.8556, 0.0764
106.8659, 0.0885
106.8762, 0.0920
106.8865, 0.0833
106.8968, 0.0920
106.9071, 0.0764
106.9174, 0.0781
106.9277, 0.0851
106.9381, 0.0903
106.9484, 0.0920
106.9587, 0.0660
106.9690, 0.0885
106.9793, 0.0816
106.9896, 0.0833
106.9999, 0.0816
107.0102, 0.0920
107.0205, 0.0747
107.0308, 0.0903
107.0411, 0.0851
107.0514, 0.1250
107.0617, 0.0851
107.0720, 0.0694
107.0823, 0.0868
107.0926, 0.0729
107.1029, 0.0868
107.1132, 0.0833
107.1235, 0.0781
107.1338, 0.0938
107.1441, 0.0833
107.1544, 0.0816
107.1647, 0.0694
107.1750, 0.1024
107.1854, 0.0799
107.1957, 0.0694
107.2060, 0.0851
107.2163, 0.0851
107.2266, 0.0903
107.2369, 0.0625
107.2472, 0.0764
107.2575, 0.0729
107.2678, 0.0642
107.2781, 0.0660
107.2884, 0.0799
107.2987, 0.0851
107.3090, 0.0781
107.3193, 0.0590
107.3296, 0.0608
107.3399, 0.0538
107.3502, 0.0590
107.3605, 0.0556
107.3708, 0.0729
107.3811, 0.0625
107.3914, 0.0764
107.4017, 0.0556
107.4120, 0.0538
107.4223, 0.0608
107.4326, 0.0694
107.4430, 0.0747
107.4533, 0.0677
107.4636, 0.0469
107.4739, 0.0625
107.4842, 0.0608
107.4945, 0.0556
107.5048, 0.0590
107.5151, 0.0747
107.5254, 0.0521
107.5357, 0.0573
107.5460, 0.0538
107.5563, 0.0521
107.5666, 0.0417
107.5769, 0.0625
107.5872, 0.0486
107.5975, 0.0660
107.6078, 0.0486
107.6181, 0.0469
107.6284, 0.0625
107.6387, 0.0486
107.6490, 0.0608
107.6593, 0.0660
107.6696, 0.0556
107.6799, 0.0573
107.6902, 0.0677
107.7006, 0.0538
107.7109, 0.0486
107.7212, 0.0469
107.7315, 0.0313
107.7418, 0.0451
107.7521, 0.0486
107.7624, 0.0538
107.7727, 0.0694
107.7830, 0.0503
107.7933, 0.0365
107.8036, 0.0486
107.8139, 0.0590
107.8242, 0.0694
107.8345, 0.0399
107.8448, 0.0503
107.8551, 0.0625
107.8654, 0.0486
107.8757, 0.0382
107.8860, 0.0469
107.8963, 0.0399
107.9066, 0.0573
107.9169, 0.0521
107.9272, 0.0365
107.9375, 0.0556
107.9479, 0.0712
107.9582, 0.0434
107.9685, 0.0573
107.9788, 0.0573
107.9891, 0.0382
107.9994, 0.0608
108.0097, 0.0642
108.0200, 0.0486
108.0303, 0.0503
108.0406, 0.0399
108.0509, 0.0295
108.0612, 0.0521
108.0715, 0.0538
108.0818, 0.0608
108.0921, 0.0469
108.1024, 0.0556
108.1127, 0.0573
108.1230, 0.0417
108.1333, 0.0417
108.1436, 0.0590
108.1539, 0.0503
108.1642, 0.0417
108.1745, 0.0590
108.1848, 0.0712
108.1951, 0.0417
108.2055, 0.0382
108.2158, 0.0538
108.2261, 0.0313
108.2364, 0.0538
108.2467, 0.0642
108.2570, 0.0556
108.2673, 0.0608
108.2776, 0.0503
108.2879, 0.0434
108.2982, 0.0503
108.3085, 0.0538
108.3188, 0.0451
108.3291, 0.0417
108.3394, 0.0503
108.3497, 0.0503
108.3600, 0.0469
108.3703, 0.0556
108.3806, 0.0330
108.3909, 0.0295
108.4012, 0.0451
108.4115, 0.0365
108.4218, 0.0556
108.4321, 0.0486
108.4424, 0.0469
108.4527, 0.0399
108.4631, 0.0573
108.4734, 0.0538
108.4837, 0.0573
108.4940, 0.0503
108.5043, 0.0556
108.5146, 0.0434
108.5249, 0.0365
108.5352, 0.0330
108.5455, 0.0503
108.5558, 0.0417
108.5661, 0.0486
108.5764, 0.0382
108.5867, 0.0486
108.5970, 0.0486
108.6073, 0.0434
108.6176, 0.0469
108.6279, 0.0382
108.6382, 0.0434
108.6485, 0.0295
108.6588, 0.0451
108.6691, 0.0382
108.6794, 0.0451
108.6897, 0.0451
108.7000, 0.0538
108.7104, 0.0399
108.7207, 0.0417
108.7310, 0.0313
108.7413, 0.0434
108.7516, 0.0451
108.7619, 0.0417
108.7722, 0.0417
108.7825, 0.0642
108.7928, 0.0469
108.8031, 0.0451
108.8134, 0.0556
108.8237, 0.0347
108.8340, 0.0313
108.8443, 0.0469
108.8546, 0.0417
108.8649, 0.0503
108.8752, 0.0313
108.8855, 0.0399
108.8958, 0.0382
108.9061, 0.0347
108.9164, 0.0260
108.9267, 0.0295
108.9370, 0.0417
108.9473, 0.0382
108.9576, 0.0538
108.9680, 0.0365
108.9783, 0.0417
108.9886, 0.0521
108.9989, 0.0226
109.0092, 0.0382
109.0195, 0.0503
109.0298, 0.0208
109.0401, 0.0503
109.0504, 0.0330
109.0607, 0.0451
109.0710, 0.0503
109.0813, 0.0382
109.0916, 0.0417
109.1019, 0.0608
109.1122, 0.0330
109.1225, 0.0399
109.1328, 0.0417
109.1431, 0.0451
109.1534, 0.0486
109.1637, 0.0347
109.1740, 0.0365
109.1843, 0.0330
109.1946, 0.0330
109.2049, 0.0469
109.2152, 0.0556
109.2256, 0.0573
109.2359, 0.0295
109.2462, 0.0469
109.2565, 0.0260
109.2668, 0.0382
109.2771, 0.0347
109.2874, 0.0469
109.2977, 0.0451
109.3080, 0.0521
109.3183, 0.0451
109.3286, 0.0382
109.3389, 0.0347
109.3492, 0.0503
109.3595, 0.0278
109.3698, 0.0417
109.3801, 0.0243
109.3904, 0.0313
109.4007, 0.0295
109.4110, 0.0399
109.4213, 0.0417
109.4316, 0.0434
109.4419, 0.0399
109.4522, 0.0295
109.4625, 0.0313
109.4729, 0.0330
109.4832, 0.0295
109.4935, 0.0434
109.5038, 0.0313
109.5141, 0.0347
109.5244, 0.0382
109.5347, 0.0556
109.5450, 0.0399
109.5553, 0.0486
109.5656, 0.0503
109.5759, 0.0347
109.5862, 0.0399
109.5965, 0.0313
109.6068, 0.0486
109.6171, 0.0503
109.6274, 0.0417
109.6377, 0.0521
109.6480, 0.0313
109.6583, 0.0451
109.6686, 0.0330
109.6789, 0.0486
109.6892, 0.0295
109.6995, 0.0313
109.7098, 0.0521
109.7201, 0.0313
109.7305, 0.0556
109.7408, 0.0434
109.7511, 0.0313
109.7614, 0.0278
109.7717, 0.0365
109.7820, 0.0451
109.7923, 0.0538
109.8026, 0.0469
109.8129, 0.0434
109.8232, 0.0382
109.8335, 0.0538
109.8438, 0.0399
109.8541, 0.0382
109.8644, 0.0399
109.8747, 0.0399
109.8850, 0.0347
109.8953, 0.0417
109.9056, 0.0556
109.9159, 0.0365
109.9262, 0.0417
109.9365, 0.0243
109.9468, 0.0434
109.9571, 0.0313
109.9674, 0.0365
109.9778, 0.0399
109.9881, 0.0347
109.9984, 0.0399
110.0087, 0.0382
110.0190, 0.0451
110.0293, 0.0347
110.0396, 0.0538
110.0499, 0.0399
110.0602, 0.0399
110.0705, 0.0330
110.0808, 0.0347
110.0911, 0.0451
110.1014, 0.0434
110.1117, 0.0365
110.1220, 0.0451
110.1323, 0.0417
110.1426, 0.0538
110.1529, 0.0399
110.1632, 0.0347
110.1735, 0.0330
110.1838, 0.0347
110.1941, 0.0399
110.2044, 0.0313
110.2147, 0.0451
110.2250, 0.0590
110.2354, 0.0365
110.2457, 0.0313
110.2560, 0.0417
110.2663, 0.0434
110.2766, 0.0538
110.2869, 0.0382
110.2972, 0.0469
110.3075, 0.0295
110.3178, 0.0451
110.3281, 0.0365
110.3384, 0.0278
110.3487, 0.0538
110.3590, 0.0260
110.3693, 0.0278
110.3796, 0.0399
110.3899, 0.0365
110.4002, 0.0295
110.4105, 0.0260
110.4208, 0.0330
110.4311, 0.0469
110.4414, 0.0451
110.4517, 0.0556
110.4620, 0.0469
110.4723, 0.0365
110.4826, 0.0434
110.4930, 0.0243
110.5033, 0.0399
110.5136, 0.0469
110.5239, 0.0399
110.5342, 0.0451
110.5445, 0.0243
110.5548, 0.0347
110.5651, 0.0365
110.5754, 0.0417
110.5857, 0.0260
110.5960, 0.0417
110.6063, 0.0451
110.6166, 0.0434
110.6269, 0.0313
110.6372, 0.0382
110.6475, 0.0417
110.6578, 0.0521
110.6681, 0.0538
110.6784, 0.0469
110.6887, 0.0399
110.6990, 0.0538
110.7093, 0.0434
110.7196, 0.0365
110.7299, 0.0434
110.7403, 0.0382
110.7506, 0.0451
110.7609, 0.0573
110.7712, 0.0434
110.7815, 0.0469
110.7918, 0.0608
110.8021, 0.0677
110.8124, 0.0313
110.8227, 0.0469
110.8330, 0.0521
110.8433, 0.0295
110.8536, 0.0365
110.8639, 0.0365
110.8742, 0.0434
110.8845, 0.0347
110.8948, 0.0434
110.9051, 0.0625
110.9154, 0.0503
110.9257, 0.0521
110.9360, 0.0503
110.9463, 0.0694
110.9566, 0.0642
110.9669, 0.0538
110.9772, 0.0677
110.9875, 0.0590
110.9979, 0.0833
111.0082, 0.0694
111.0185, 0.0642
111.0288, 0.0781
111.0391, 0.0521
111.0494, 0.0694
111.0597, 0.0469
111.0700, 0.0486
111.0803, 0.0677
111.0906, 0.0677
111.1009, 0.0625
111.1112, 0.0660
111.1215, 0.0712
111.1318, 0.0590
111.1421, 0.0660
111.1524, 0.0799
111.1627, 0.0712
111.1730, 0.0712
111.1833, 0.0660
111.1936, 0.0608
111.2039, 0.0712
111.2142, 0.0660
111.2245, 0.0833
111.2348, 0.0694
111.2451, 0.0747
111.2555, 0.0608
111.2658, 0.0573
111.2761, 0.0938
111.2864, 0.1128
111.2967, 0.1042
111.3070, 0.0729
111.3173, 0.0660
111.3276, 0.0694
111.3379, 0.0903
111.3482, 0.0521
111.3585, 0.0694
111.3688, 0.0677
111.3791, 0.0590
111.3894, 0.0851
111.3997, 0.0851
111.4100, 0.0712
111.4203, 0.0868
111.4306, 0.0868
111.4409, 0.0608
111.4512, 0.0660
111.4615, 0.0903
111.4718, 0.0781
111.4821, 0.0764
111.4924, 0.0625
111.5028, 0.0677
111.5131, 0.0764
111.5234, 0.0694
111.5337, 0.0816
111.5440, 0.0799
111.5543, 0.0764
111.5646, 0.0625
111.5749, 0.0799
111.5852, 0.0642
111.5955, 0.0729
111.6058, 0.0521
111.6161, 0.0729
111.6264, 0.0747
111.6367, 0.0712
111.6470, 0.0851
111.6573, 0.0625
111.6676, 0.0677
111.6779, 0.0781
111.6882, 0.0608
111.6985, 0.0642
111.7088, 0.0868
111.7191, 0.0625
111.7294, 0.0781
111.7397, 0.0781
111.7500, 0.0556
111.7604, 0.0677
111.7707, 0.0538
111.7810, 0.0590
111.7913, 0.0503
111.8016, 0.0660
111.8119, 0.0417
111.8222, 0.0642
111.8325, 0.0556
111.8428, 0.0590
111.8531, 0.0469
111.8634, 0.0608
111.8737, 0.0642
111.8840, 0.0538
111.8943, 0.0451
111.9046, 0.0729
111.9149, 0.0608
111.9252, 0.0313
111.9355, 0.0625
111.9458, 0.0538
111.9561, 0.0556
111.9664, 0.0538
111.9767, 0.0521
111.9870, 0.0503
111.9973, 0.0538
112.0076, 0.0538
112.0180, 0.0799
112.0283, 0.0573
112.0386, 0.0521
112.0489, 0.0573
112.0592, 0.0573
112.0695, 0.0503
112.0798, 0.0382
112.0901, 0.0608
112.1004, 0.0521
112.1107, 0.0417
112.1210, 0.0382
112.1313, 0.0538
112.1416, 0.0399
112.1519, 0.0486
112.1622, 0.0573
112.1725, 0.0451
112.1828, 0.0486
112.1931, 0.0608
112.2034, 0.0469
112.2137, 0.0660
112.2240, 0.0451
112.2343, 0.0399
112.2446, 0.0677
112.2549, 0.0451
112.2653, 0.0451
112.2756, 0.0503
112.2859, 0.0347
112.2962, 0.0347
112.3065, 0.0330
112.3168, 0.0451
112.3271, 0.0365
112.3374, 0.0382
112.3477, 0.0451
112.3580, 0.0712
112.3683, 0.0451
112.3786, 0.0503
112.3889, 0.0660
112.3992, 0.0434
112.4095, 0.0451
112.4198, 0.0521
112.4301, 0.0382
112.4404, 0.0382
112.4507, 0.0417
112.4610, 0.0434
112.4713, 0.0590
112.4816, 0.0451
112.4919, 0.0434
112.5022, 0.0295
112.5125, 0.0417
112.5229, 0.0347
112.5332, 0.0469
112.5435, 0.0486
112.5538, 0.0503
112.5641, 0.0399
112.5744, 0.0434
112.5847, 0.0590
112.5950, 0.0451
112.6053, 0.0503
112.6156, 0.0469
112.6259, 0.0347
112.6362, 0.0503
112.6465, 0.0399
112.6568, 0.0469
112.6671, 0.0434
112.6774, 0.0486
112.6877, 0.0399
112.6980, 0.0434
112.7083, 0.0556
112.7186, 0.0608
112.7289, 0.0330
112.7392, 0.0417
112.7495, 0.0451
112.7598, 0.0417
112.7702, 0.0260
112.7805, 0.0486
112.7908, 0.0434
112.8011, 0.0434
112.8114, 0.0399
112.8217, 0.0330
112.8320, 0.0399
112.8423, 0.0382
112.8526, 0.0347
112.8629, 0.0313
112.8732, 0.0382
112.8835, 0.0434
112.8938, 0.0434
112.9041, 0.0469
112.9144, 0.0521
112.9247, 0.0295
112.9350, 0.0573
112.9453, 0.0434
112.9556, 0.0399
112.9659, 0.0382
112.9762, 0.0347
112.9865, 0.0469
112.9968, 0.0486
113.0071, 0.0399
113.0174, 0.0382
113.0278, 0.0434
113.0381, 0.0399
113.0484, 0.0347
113.0587, 0.0399
113.0690, 0.0313
113.0793, 0.0365
113.0896, 0.0521
113.0999, 0.0208
113.1102, 0.0434
113.1205, 0.0486
113.1308, 0.0313
113.1411, 0.0382
113.1514, 0.0313
113.1617, 0.0521
113.1720, 0.0313
113.1823, 0.0330
113.1926, 0.0313
113.2029, 0.0417
113.2132, 0.0382
113.2235, 0.0451
113.2338, 0.0469
113.2441, 0.0347
113.2544, 0.0330
113.2647, 0.0451
113.2750, 0.0538
113.2854, 0.0365
113.2957, 0.0330
113.3060, 0.0417
113.3163, 0.0382
113.3266, 0.0330
113.3369, 0.0260
113.3472, 0.0330
113.3575, 0.0503
113.3678, 0.0347
113.3781, 0.0347
113.3884, 0.0226
113.3987, 0.0434
113.4090, 0.0330
113.4193, 0.0451
113.4296, 0.0538
113.4399, 0.0365
113.4502, 0.0469
113.4605, 0.0330
113.4708, 0.0365
113.4811, 0.0278
113.4914, 0.0399
113.5017, 0.0347
113.5120, 0.0260
113.5223, 0.0521
113.5327, 0.0556
113.5430, 0.0208
113.5533, 0.0399
113.5636, 0.0417
113.5739, 0.0347
113.5842, 0.0330
113.5945, 0.0382
113.6048, 0.0260
113.6151, 0.0330
113.6254, 0.0295
113.6357, 0.0417
113.6460, 0.0503
113.6563, 0.0399
113.6666, 0.0417
113.6769, 0.0365
113.6872, 0.0365
113.6975, 0.0226
113.7078, 0.0278
113.7181, 0.0434
113.7284, 0.0347
113.7387, 0.0365
113.7490, 0.0417
113.7593, 0.0260
113.7696, 0.0382
113.7799, 0.0347
113.7903, 0.0347
113.8006, 0.0313
113.8109, 0.0313
113.8212, 0.0347
113.8315, 0.0191
113.8418, 0.0503
113.8521, 0.0469
113.8624, 0.0382
113.8727, 0.0278
113.8830, 0.0434
113.8933, 0.0347
113.9036, 0.0538
113.9139, 0.0382
113.9242, 0.0451
113.9345, 0.0278
113.9448, 0.0313
113.9551, 0.0330
113.9654, 0.0399
113.9757, 0.0434
113.9860, 0.0434
113.9963, 0.0434
114.0066, 0.0399
114.0169, 0.0313
114.0272, 0.0399
114.0375, 0.0382
114.0479, 0.0330
114.0582, 0.0434
114.0685, 0.0278
114.0788, 0.0451
114.0891, 0.0434
114.0994, 0.0399
114.1097, 0.0330
114.1200, 0.0347
114.1303, 0.0330
114.1406, 0.0486
114.1509, 0.0434
114.1612, 0.0347
114.1715, 0.0347
114.1818, 0.0434
114.1921, 0.0347
114.2024, 0.0330
114.2127, 0.0347
114.2230, 0.0347
114.2333, 0.0347
114.2436, 0.0434
114.2539, 0.0469
114.2642, 0.0365
114.2745, 0.0278
114.2848, 0.0434
114.2952, 0.0208
114.3055, 0.0330
114.3158, 0.0365
114.3261, 0.0278
114.3364, 0.0295
114.3467, 0.0434
114.3570, 0.0278
114.3673, 0.0226
114.3776, 0.0243
114.3879, 0.0260
114.3982, 0.0313
114.4085, 0.0399
114.4188, 0.0365
114.4291, 0.0330
114.4394, 0.0313
114.4497, 0.0330
114.4600, 0.0365
114.4703, 0.0399
114.4806, 0.0434
114.4909, 0.0278
114.5012, 0.0434
114.5115, 0.0347
114.5218, 0.0243
114.5321, 0.0399
114.5424, 0.0365
114.5528, 0.0260
114.5631, 0.0365
114.5734, 0.0486
114.5837, 0.0382
114.5940, 0.0330
114.6043, 0.0469
114.6146, 0.0399
114.6249, 0.0295
114.6352, 0.0243
114.6455, 0.0451
114.6558, 0.0486
114.6661, 0.0365
114.6764, 0.0347
114.6867, 0.0347
114.6970, 0.0330
114.7073, 0.0365
114.7176, 0.0486
114.7279, 0.0295
114.7382, 0.0330
114.7485, 0.0417
114.7588, 0.0573
114.7691, 0.0330
114.7794, 0.0521
114.7897, 0.0486
114.8000, 0.0434
114.8104, 0.0330
114.8207, 0.0365
114.8310, 0.0365
114.8413, 0.0365
114.8516, 0.0382
114.8619, 0.0417
114.8722, 0.0347
114.8825, 0.0382
114.8928, 0.0347
114.9031, 0.0295
114.9134, 0.0313
114.9237, 0.0521
114.9340, 0.0503
114.9443, 0.0556
114.9546, 0.0451
114.9649, 0.0486
114.9752, 0.0503
114.9855, 0.0538
114.9958, 0.0469
115.0061, 0.0417
##END=$$ End of the data block

`;

export default xrdJcamp1;
